time,seconds_elapsed,z,y,x,gyro_x,gyro_y,gyro_z
2023-11-30 19:52:37.721954000,0.0379541015625,0.0,0.0,0.0,-0.8053488731384277,0.6960040330886841,-0.003359756199643
2023-11-30 19:52:37.740555800,0.0565556640625,-0.0913078784942627,0.0976781845092773,0.0222877264022827,-1.029536247253418,0.8010727763175964,0.0287106446921825
2023-11-30 19:52:37.759157200,0.0751572265625,0.0603511333465576,0.159637451171875,0.0184757709503173,-1.1077269315719604,0.8126792311668396,0.0100792692974209
2023-11-30 19:52:37.777759000,0.093759033203125,0.3862314224243164,0.1950845718383789,-0.054600715637207,-1.0603848695755005,0.8129846453666687,-0.0009162971982732
2023-11-30 19:52:37.796360700,0.112360595703125,0.5516777038574219,0.1358413696289062,-0.1652573347091674,-0.8859829902648926,0.6474403142929077,-0.0140498895198106
2023-11-30 19:52:37.814962200,0.130962158203125,0.6284579038619995,0.1049079895019531,-0.1751215457916259,-0.6611847877502441,0.3887390792369842,-0.0122172953560948
2023-11-30 19:52:37.833564000,0.14956396484375,0.3773175477981567,0.1447086334228515,-0.2144256830215454,-0.4763981699943542,0.1333975940942764,0.0128281600773334
2023-11-30 19:52:37.852165400,0.168165283203125,-0.1301168203353881,0.2416505813598632,-0.2386244535446167,-0.3499491512775421,-0.0617737025022506,0.0427605360746383
2023-11-30 19:52:37.870767000,0.18676708984375,-0.4941394329071045,0.1024761199951171,-0.0947380065917968,-0.2494619041681289,-0.1634826809167862,0.0739146396517753
2023-11-30 19:52:37.889368600,0.20536865234375,-0.4862395524978637,-0.2564849853515625,0.0231250524520874,-0.1850156635046005,-0.1268308013677597,0.0604756139218807
2023-11-30 19:52:37.907970300,0.22397021484375,-0.5126650333404541,-0.5388326644897461,0.2811064720153808,-0.2005927264690399,-0.0309250298887491,0.0308486707508564
2023-11-30 19:52:37.926571800,0.24257177734375,-0.5744754076004028,-0.4765338897705078,0.3045675754547119,-0.2790888547897339,0.0060322894714772,-0.0015271619195118
2023-11-30 19:52:37.945173500,0.261173583984375,-0.4094722867012024,-0.4975299835205078,0.2077146768569946,-0.3560578227043152,0.0185550171881914,-0.0146607551723718
2023-11-30 19:52:37.963775000,0.27977490234375,-0.0289375782012939,-0.5582304000854492,-0.0973222255706787,-0.3985128998756408,0.0600938238203525,-0.0073303775861859
2023-11-30 19:52:37.982376700,0.298376708984375,0.2958037853240967,-0.3781890869140625,-0.4428761005401611,-0.4067595899105072,0.1495855152606964,0.0012217295588925
2023-11-30 19:52:38.000978400,0.316978515625,0.3542426824569702,0.039525032043457,-0.7142891883850098,-0.4064541459083557,0.2824485898017883,0.0320704020559787
2023-11-30 19:52:38.019580000,0.335579833984375,0.2166275978088379,0.3840970993041992,-0.9923839569091796,-0.4305832982063293,0.3997346460819244,0.0800232887268066
2023-11-30 19:52:38.038181600,0.354181640625,-0.0239126086235046,0.5454025268554688,-1.121354103088379,-0.4736492931842804,0.4522690176963806,0.1350011229515075
2023-11-30 19:52:38.056783000,0.372783203125,-0.1734288930892944,0.4446315765380859,-1.2028133869171145,-0.5005273222923279,0.4006509482860565,0.1423314958810806
2023-11-30 19:52:38.075384800,0.391384765625,-0.2090974450111389,0.1596260070800781,-0.9813127517700196,-0.441884309053421,0.279394268989563,0.0601701810956001
2023-11-30 19:52:38.093986600,0.409986572265625,-0.2654881477355957,0.059330940246582,-0.3584992885589599,-0.2867246568202972,0.2421315312385559,-0.0329866968095302
2023-11-30 19:52:38.112588000,0.428588134765625,-0.195578932762146,0.1486415863037109,0.146331787109375,-0.1111010313034057,0.265955239534378,-0.0965166315436363
2023-11-30 19:52:38.131189800,0.447189697265625,-0.1719537377357483,0.1395711898803711,0.6460850238800049,0.0122936535626649,0.2738964855670929,-0.1661552190780639
2023-11-30 19:52:38.149791200,0.465791259765625,-0.1096923649311065,-0.0291957855224609,1.1839450597763062,0.0461966507136821,0.2073122411966323,-0.2064722925424575
2023-11-30 19:52:38.168393000,0.48439306640625,-0.1839620471000671,-0.1566629409790039,1.3395402431488037,0.004657844081521,0.1187368407845497,-0.171653002500534
2023-11-30 19:52:38.186994700,0.50299462890625,-0.2432187497615814,-0.1601018905639648,1.0985134840011597,-0.0823903903365135,0.0436004735529422,-0.0919351503252983
2023-11-30 19:52:38.205596200,0.52159619140625,-0.2212184816598892,-0.0640668869018554,0.8522279262542725,-0.1666897237300872,-0.0202348958700895,0.0064140800386667
2023-11-30 19:52:38.224198000,0.540197998046875,-0.0404281318187713,0.0866470336914062,0.4696663618087768,-0.2024253159761428,-0.0663551837205886,0.0919351503252983
2023-11-30 19:52:38.242799400,0.55879931640625,0.184001088142395,0.1126747131347656,0.1429126262664795,-0.18990258872509,-0.1179732605814933,0.1392771750688552
2023-11-30 19:52:38.261401000,0.577401123046875,0.2130942940711975,0.1021604537963867,0.0502518415451049,-0.1260672211647033,-0.2209039777517318,0.1640172004699707
2023-11-30 19:52:38.280002600,0.59600244140625,0.0780174434185028,0.1354885101318359,0.069448709487915,-0.0674242004752159,-0.3891972303390503,0.1634063273668289
2023-11-30 19:52:38.298604300,0.614604248046875,-0.3974419236183166,0.2514581680297851,0.3032219409942627,-0.0338266380131244,-0.525420069694519,0.1438586562871933
2023-11-30 19:52:38.317205800,0.633205810546875,-0.7353206872940063,0.0963811874389648,0.4511116743087768,0.0239000841975212,-0.4212676286697387,0.1472184062004089
2023-11-30 19:52:38.335807500,0.651807373046875,-0.7387973666191101,-0.1478643417358398,0.2332789897918701,0.0712421014904975,-0.1445458829402923,0.1710421442985534
2023-11-30 19:52:38.354409000,0.670408935546875,-0.6331483721733093,-0.0426750183105468,-0.1706905364990234,0.0633008629083633,0.03138317912817,0.2070831656455993
2023-11-30 19:52:38.373010700,0.6890107421875,-0.5580973625183105,0.2980022430419922,-0.6437778472900391,0.0297033004462718,0.0717002525925636,0.232128620147705
2023-11-30 19:52:38.391612200,0.707612060546875,-0.3400985300540924,0.310272216796875,-0.914952039718628,0.0113773569464683,0.0185550171881914,0.2238819450139999
2023-11-30 19:52:38.410214000,0.7262138671875,-0.0473536849021911,0.0755157470703125,-0.903092622756958,0.0101556265726685,0.021609341725707,0.2018908113241195
2023-11-30 19:52:38.428815600,0.744815673828125,0.0675083100795745,-0.2152719497680664,-0.6565608978271484,-0.001450803829357,0.1211803033947944,0.2055560052394867
2023-11-30 19:52:38.447417000,0.7634169921875,0.0291781723499298,-0.3979911804199219,-0.346515417098999,-0.0475710928440094,0.1703549176454544,0.2183841615915298
2023-11-30 19:52:38.466018800,0.782018798828125,0.0476192235946655,-0.5393562316894531,-0.0420670509338378,-0.0979674383997917,0.1132390573620796,0.232128620147705
2023-11-30 19:52:38.484620300,0.800620361328125,0.2638544738292694,-0.6725082397460938,0.2013406753540039,-0.1239291951060295,-0.0562759190797805,0.2208276242017746
2023-11-30 19:52:38.503222000,0.819221923828125,0.501201331615448,-0.7790775299072266,0.4334902763366699,-0.1239291951060295,-0.2346484363079071,0.1685986816883087
2023-11-30 19:52:38.521823700,0.83782373046875,0.5429776310920715,-0.8733673095703125,0.6200647354125977,-0.1361464858055114,-0.2777144014835357,0.1340848207473755
2023-11-30 19:52:38.540425200,0.85642529296875,0.2675471305847168,-0.6684761047363281,0.4054460525512695,-0.1792124509811401,-0.1924987584352493,0.0876590982079505
2023-11-30 19:52:38.559027000,0.87502685546875,-0.0548263490200042,-0.3044414520263672,0.2815985679626465,-0.234190285205841,-0.0086284652352333,0.026267185807228
2023-11-30 19:52:38.577628400,0.89362841796875,-0.1895434707403183,0.055546760559082,0.1751542091369629,-0.2647335231304168,0.152945265173912,-0.0247400235384702
2023-11-30 19:52:38.596229000,0.91222900390625,-0.0874726101756095,0.3620615005493164,0.0849020481109619,-0.2372446060180664,0.2082285284996032,-0.0424551032483577
2023-11-30 19:52:38.614830800,0.930830810546875,0.2050267159938812,0.5547876358032227,0.0222659111022949,-0.1627191007137298,0.1834885030984878,-0.0277943480759859
2023-11-30 19:52:38.633432300,0.949432373046875,0.4311411082744598,0.6065492630004883,-0.0148961544036865,-0.0826958194375038,0.1327867358922958,-0.0128281600773334
2023-11-30 19:52:38.652034000,0.968033935546875,0.4066945016384125,0.5234966278076172,0.0960206985473632,-0.0243582334369421,0.1077412739396095,0.0091629717499017
2023-11-30 19:52:38.670635500,0.986635498046875,0.1874391287565231,0.3928289413452148,0.1276865005493164,0.0031306820455938,0.0726165473461151,0.0345138609409332
2023-11-30 19:52:38.689237200,1.0052373046875,-0.0596563443541526,0.1799678802490234,0.121072769165039,0.0083230324089527,0.0258853957056999,0.0528398044407367
2023-11-30 19:52:38.707838700,1.023838623046875,-0.3190490901470184,-0.0637092590332031,0.0648055076599121,0.0031306820455938,-0.0055741411633789,0.0687222853302955
2023-11-30 19:52:38.726440400,1.0424404296875,-0.4637573659420013,-0.229400634765625,-0.0312013626098632,-0.004810560029,-0.0229837875813245,0.0729983374476432
2023-11-30 19:52:38.745042000,1.0610419921875,-0.5230357050895691,-0.2888011932373047,-0.1429870128631591,-0.0234419368207454,-0.0327576249837875,0.0641408041119575
2023-11-30 19:52:38.763643600,1.0796435546875,-0.5334638953208923,-0.2289390563964843,-0.1925981044769287,-0.0481819584965705,-0.0083230324089527,0.0500909127295017
2023-11-30 19:52:38.782245000,1.0982451171875,-0.4892494976520538,-0.1508073806762695,-0.2057812213897705,-0.0689513608813285,0.034132070839405,0.0394007787108421
2023-11-30 19:52:38.800846800,1.116846923828125,-0.3253599405288696,-0.0824241638183593,-0.1251344680786132,-0.0677296295762062,0.0353537984192371,0.0342084281146526
2023-11-30 19:52:38.819448600,1.135448486328125,-0.0851684138178825,0.0096082687377929,-0.0064790248870849,-0.0457384996116161,0.0136680994182825,0.0360410213470459
2023-11-30 19:52:38.838050000,1.154050048828125,0.1022775024175643,0.0543460845947265,0.0945863723754882,-0.0155006935819983,-0.0022143847309052,0.0354301556944847
2023-11-30 19:52:38.856651800,1.17265185546875,0.1726303994655609,0.0264797210693359,0.1783480644226074,0.0019089524867013,0.0164169911295175,0.0222965646535158
2023-11-30 19:52:38.875253200,1.191253173828125,0.1514619588851928,-0.0247097015380859,0.2152380943298339,0.0138208158314228,0.0191658828407526,0.0128281600773334
2023-11-30 19:52:38.893855000,1.20985498046875,0.0940573588013649,-0.020512580871582,0.1666948795318603,0.0174860041588544,-0.0064904382452368,0.013133592903614
2023-11-30 19:52:38.912456700,1.228456787109375,0.0027958778664469,0.0236101150512695,0.1106185913085937,0.0199294630438089,-0.0223729219287633,0.0094684036448597
2023-11-30 19:52:38.931058200,1.24705810546875,-0.003678360953927,-0.0325193405151367,0.0808794498443603,0.015347977168858,-0.0272598415613174,0.0039706211537122
2023-11-30 19:52:38.949660000,1.265659912109375,-0.01939039491117,-0.0514125823974609,0.0146722793579101,0.0040469793602824,-0.040698867291212,0.0122172953560948
2023-11-30 19:52:38.968261400,1.284261474609375,-0.0626600831747055,0.0138044357299804,-0.0386548042297363,-0.0145843969658017,-0.0507781356573104,0.0210748352110385
2023-11-30 19:52:38.986863000,1.302863037109375,-0.0916212275624275,-0.0401535034179687,-0.0303027629852294,-0.041767880320549,-0.0263435430824756,0.0122172953560948
2023-11-30 19:52:39.005464600,1.321464599609375,-0.0714969038963317,-0.0915889739990234,-0.0151348114013671,-0.0750600099563598,0.018860450014472,-0.002443459117785
2023-11-30 19:52:39.024066300,1.34006640625,-0.0232072826474905,-0.0476436614990234,-0.1101417541503906,-0.093691386282444,0.034132070839405,-0.0195476729422807
2023-11-30 19:52:39.042667800,1.358667724609375,0.1021376997232437,-0.0200958251953125,-0.1942856311798095,-0.0848338454961776,0.0277179889380931,-0.0384844802320003
2023-11-30 19:52:39.061269500,1.37726953125,0.2578454315662384,-0.0762166976928711,-0.2321102619171142,-0.05337430909276,0.0387135557830333,-0.0503963455557823
2023-11-30 19:52:39.079871000,1.39587109375,0.2579997777938843,-0.1073255538940429,-0.1262876987457275,-0.0240528006106615,0.0588720925152301,-0.0565049909055233
2023-11-30 19:52:39.098472700,1.41447265625,0.1180801689624786,-0.0029830932617187,0.0316805839538574,-0.018860450014472,0.0695622265338897,-0.0488691814243793
2023-11-30 19:52:39.117074200,1.43307421875,-0.047419436275959,0.1196460723876953,0.1089563369750976,-0.0322994738817215,0.0585666596889495,-0.0348192937672138
2023-11-30 19:52:39.135676000,1.451676025390625,-0.1555009633302688,0.1466398239135742,0.2224807739257812,-0.0365755297243595,0.0319940410554409,-0.0226019974797964
2023-11-30 19:52:39.154277600,1.470277587890625,-0.1162599846720695,0.0412626266479492,0.2791962623596191,-0.0255799628794193,-0.0049632764421403,-0.013439024798572
2023-11-30 19:52:39.172879000,1.488879150390625,-0.0653537884354591,-0.1273231506347656,0.2296464443206787,-0.0087811816483736,-0.0446694865822792,-0.0103847011923789
2023-11-30 19:52:39.191480800,1.507480712890625,-0.1072887107729911,-0.2602310180664062,0.0334796905517578,7.63580974307e-05,-0.0550541877746582,0.0003054323897231
2023-11-30 19:52:39.210082300,1.526082275390625,-0.204150453209877,-0.3005905151367187,-0.2245378494262695,-0.0057268571108579,-0.0495564043521881,0.003359756199643
2023-11-30 19:52:39.228684000,1.54468408203125,-0.3239510059356689,-0.2382087707519531,-0.3709681034088135,-0.0182495843619108,-0.0263435430824756,-0.0058032153174281
2023-11-30 19:52:39.247285800,1.56328564453125,-0.3503897786140442,-0.0690469741821289,-0.3659892082214355,-0.0194713156670331,0.0197767466306686,-0.0155770517885684
2023-11-30 19:52:39.265887200,1.58188720703125,-0.2482586950063705,0.0572996139526367,-0.2757537364959717,-0.0148898288607597,0.0457384996116161,-0.0229074284434318
2023-11-30 19:52:39.284489000,1.600489013671875,-0.0612622946500778,0.111973762512207,-0.136207103729248,-0.0093920463696122,0.0408515818417072,-0.0274889152497053
2023-11-30 19:52:39.303090400,1.61909033203125,0.1345995664596557,0.1126737594604492,-0.0270600318908691,0.0006872228696011,0.0310777463018894,-0.0222965646535158
2023-11-30 19:52:39.321692200,1.637692138671875,0.2497500479221344,0.1005144119262695,0.068732738494873,0.0125990863889455,0.0130572346970438,-0.0143553223460912
2023-11-30 19:52:39.340293600,1.656293701171875,0.2728174030780792,0.0468320846557617,0.1651580333709716,0.0144316805526614,-0.0104610593989491,-0.0140498895198106
2023-11-30 19:52:39.358895400,1.674895263671875,0.2004267573356628,0.0693368911743164,0.194319486618042,0.0208457615226507,-0.0116827888414263,-0.0064140800386667
2023-11-30 19:52:39.377497000,1.6934970703125,0.1537643373012542,0.0010223388671875,0.0882620811462402,0.0251218136399984,-0.0239000841975212,0.0018325943965464
2023-11-30 19:52:39.396098600,1.7120986328125,0.0315509289503097,0.022170066833496,0.0186109542846679,0.0309250298887491,-0.0232892204076051,0.0070249447599053
2023-11-30 19:52:39.414700000,1.730699951171875,-0.0163098275661468,-0.0232181549072265,0.0077521800994873,0.036422811448574,-0.0098501946777105,-0.0003054323897231
2023-11-30 19:52:39.433301800,1.7493017578125,-0.0285202637314796,-0.0758895874023437,0.0345051288604736,0.0348956510424613,0.0023671009112149,0.0
2023-11-30 19:52:39.451903200,1.7679033203125,-0.0487892031669616,-0.0321588516235351,0.0054547786712646,0.0394771359860897,0.0096974782645702,0.0051923505961894
2023-11-30 19:52:39.470505000,1.7865048828125,0.0273950919508934,0.0120925903320312,0.0271031856536865,0.0498618371784687,0.0243582334369421,0.0054977829568088
2023-11-30 19:52:39.489106700,1.805106689453125,0.086914524435997,-0.016702651977539,0.0302522182464599,0.0431423261761665,0.018860450014472,0.0073303775861859
2023-11-30 19:52:39.507708200,1.823708251953125,0.0604814291000366,-0.0583810806274414,0.00238037109375,0.0257326792925596,-0.0092393299564719,0.0146607551723718
2023-11-30 19:52:39.526310000,1.842309814453125,0.0137082785367965,-0.0605278015136718,-0.0207939147949218,0.0107664912939071,-0.0327576249837875,0.024129157885909
2023-11-30 19:52:39.544911400,1.860911376953125,-0.0313347652554512,-0.056157112121582,0.016397476196289,-0.0011453714687377,-0.0339793525636196,0.0244345907121896
2023-11-30 19:52:39.563513000,1.87951318359375,-0.063808649778366,-0.0693922042846679,0.0888023376464843,-0.0087811816483736,-0.0223729219287633,0.0213802680373191
2023-11-30 19:52:39.582114800,1.89811474609375,-0.0219383984804153,-0.0400333404541015,0.086292028427124,-0.0130572346970438,-0.0217620581388473,0.0186313763260841
2023-11-30 19:52:39.600716300,1.91671630859375,0.0228274278342723,-0.0105409622192382,0.0330927371978759,-0.0106137758120894,-0.0342847853899002,0.0183259434998035
2023-11-30 19:52:39.619318000,1.935318115234375,0.0328106172382831,-0.0475721359252929,-0.0019843578338623,-0.0060322894714772,-0.0419205948710441,0.0198531057685613
2023-11-30 19:52:39.637919500,1.95391943359375,-0.0168074443936347,-0.0889797210693359,0.015632152557373,-0.0035888305865228,-0.0391717031598091,0.0155770517885684
2023-11-30 19:52:39.656521200,1.972521240234375,-0.0605372339487075,-0.1242485046386718,0.0598046779632568,-0.0090866135433316,-0.0382554084062576,0.013439024798572
2023-11-30 19:52:39.675122700,1.991122802734375,-0.1125992760062217,-0.1567869186401367,-0.0030210018157958,-0.0234419368207454,-0.0501672700047493,0.0177150778472423
2023-11-30 19:52:39.693724400,2.009724365234375,-0.1718690991401672,-0.1309623718261718,-0.0549869537353515,-0.0371863916516304,-0.0599411055445671,0.0222965646535158
2023-11-30 19:52:39.712326000,2.028325927734375,-0.1897077709436416,-0.0598812103271484,-0.0749449729919433,-0.0356592312455177,-0.0538324601948261,0.0186313763260841
2023-11-30 19:52:39.730927600,2.046927734375,-0.1272358149290084,0.0356340408325195,-0.0291101932525634,-0.0219147745519876,-0.0361173786222934,0.0061086476780474
2023-11-30 19:52:39.749529000,2.065529052734375,-0.0610334500670433,0.0746345520019531,-0.0065484046936035,-0.0087811816483736,-0.015653409063816,-0.0030543238390237
2023-11-30 19:52:39.768130800,2.084130859375,-0.012533389031887,0.0734100341796875,-0.0086965560913085,-0.001450803829357,-0.0122936535626649,-0.006719512399286
2023-11-30 19:52:39.786732300,2.102732177734375,-0.0049342438578605,0.0713644027709961,-0.0033659934997558,0.0052687088027596,-0.0211511924862861,-0.0061086476780474
2023-11-30 19:52:39.805334000,2.121333984375,0.0050628557801246,0.0201292037963867,0.0051276683807373,0.0040469793602824,-0.0165697075426578,-0.0048869182355701
2023-11-30 19:52:39.823935700,2.139935791015625,-0.070754699409008,-0.0084352493286132,-0.0123848915100097,-0.0176387205719947,-0.0022143847309052,-0.0061086476780474
2023-11-30 19:52:39.842537200,2.158537109375,-0.2126232385635376,-0.0216035842895507,-0.0079545974731445,-0.0420733131468296,0.0246636662632226,-0.0073303775861859
2023-11-30 19:52:39.861139000,2.177138916015625,-0.1966390609741211,-0.0111627578735351,-0.079263687133789,-0.044516772031784,0.0246636662632226,-0.0064140800386667
2023-11-30 19:52:39.879740400,2.195740478515625,-0.110322818160057,0.0350189208984375,-0.0798473358154296,-0.0359646640717983,0.0234419368207454,-0.0054977829568088
2023-11-30 19:52:39.898342100,2.214342041015625,-0.0801422297954559,0.0603218078613281,-0.0506761074066162,-0.0271071251481771,0.0414624474942684,-0.0207694023847579
2023-11-30 19:52:39.916944000,2.23294384765625,-0.0508200228214263,-0.0177125930786132,-0.0214223861694335,-0.0228310711681842,0.0591775253415107,-0.0323758348822593
2023-11-30 19:52:39.935545300,2.25154541015625,-0.0611286014318466,-0.0353622436523437,-0.12441086769104,-0.0161115583032369,0.0558177679777145,-0.0216856990009546
2023-11-30 19:52:39.954147000,2.27014697265625,-0.0029854476451873,0.0033540725708007,-0.1441340446472168,-0.0081703159958124,0.0252745300531387,-0.0116064306348562
2023-11-30 19:52:39.972748500,2.28874853515625,0.0387779176235199,0.0053081512451171,-0.0309536457061767,-0.0087811816483736,0.0051159923896193,-0.0073303775861859
2023-11-30 19:52:39.991350300,2.307350341796875,-0.0181456953287124,-0.0108928680419921,0.0397737026214599,-0.0158061254769563,0.0124463699758052,-0.0116064306348562
2023-11-30 19:52:40.009951700,2.32595166015625,-0.0650427490472793,-0.0461273193359375,0.0787756443023681,-0.0194713156670331,0.0353537984192371,-0.0161879174411296
2023-11-30 19:52:40.028553500,2.344553466796875,-0.0414194762706756,-0.0637998580932617,0.0896661281585693,-0.0155006935819983,0.0466547980904579,-0.0164933484047651
2023-11-30 19:52:40.047155000,2.363155029296875,0.0023193061351776,-0.0142068862915039,0.0496802330017089,-0.0081703159958124,0.0206930451095104,-0.015882484614849
2023-11-30 19:52:40.065756700,2.381756591796875,0.0368277728557586,0.0188817977905273,0.058971881866455,-0.0005345066892914,-0.0089338971301913,-0.0116064306348562
2023-11-30 19:52:40.084358100,2.400358154296875,0.0078057497739791,0.0103540420532226,0.0678954124450683,-0.0002290742995683,-0.0248163808137178,-0.0137444576248526
2023-11-30 19:52:40.102959900,2.4189599609375,-0.0297480821609497,-0.0386610031127929,0.0997552871704101,-0.011530072428286,-0.0180968698114156,-0.013439024798572
2023-11-30 19:52:40.121561600,2.4375615234375,-0.077325627207756,-0.0975341796875,0.0719521045684814,-0.0396298542618751,-0.0077121676877141,-0.0094684036448597
2023-11-30 19:52:40.140163000,2.4561630859375,-0.1211135685443878,-0.067026138305664,0.0407824516296386,-0.0704785212874412,-0.0052687088027596,0.0009162971982732
2023-11-30 19:52:40.158764800,2.474764892578125,-0.1216773092746734,-0.0204315185546875,-0.0166981220245361,-0.0900261998176574,-0.028176138177514,0.0106901340186595
2023-11-30 19:52:40.177366300,2.4933662109375,-0.0676179379224777,-0.0039930343627929,-0.030886173248291,-0.0976620092988014,-0.0565813519060611,0.0186313763260841
2023-11-30 19:52:40.195968000,2.511968017578125,-0.0242639482021331,0.006871223449707,0.0013563632965087,-0.0939968153834343,-0.054443322122097,0.0177150778472423
2023-11-30 19:52:40.214569500,2.530569580078125,-0.0140002369880676,0.0474500656127929,0.0376856327056884,-0.0823903903365135,-0.0278707053512334,0.0085521070286631
2023-11-30 19:52:40.233171200,2.549171142578125,0.0311523228883743,0.0671358108520507,0.0405085086822509,-0.0689513608813285,-0.0067958706058561,0.0006108647794462
2023-11-30 19:52:40.251772700,2.567772705078125,0.0780541598796844,0.0587129592895507,0.0141384601593017,-0.0527634471654892,-0.0110719241201877,-0.0042760535143315
2023-11-30 19:52:40.270374400,2.58637451171875,0.0989295244216919,0.044987678527832,-0.0078485012054443,-0.0390189886093139,-0.0355065166950225,-0.0042760535143315
2023-11-30 19:52:40.288976000,2.604975830078125,0.0758813619613647,0.04925537109375,0.0328485965728759,-0.0322994738817215,-0.0602465383708477,-0.0027488914784044
2023-11-30 19:52:40.307577600,2.62357763671875,0.0320362150669097,0.0211668014526367,0.0850648880004882,-0.0353537984192371,-0.0678823515772819,0.002443459117785
2023-11-30 19:52:40.326179000,2.642178955078125,0.0208937525749206,-0.0215778350830078,0.1049079895019531,-0.0527634471654892,-0.057192213833332,0.0
2023-11-30 19:52:40.344780800,2.66078076171875,4.50313091278e-05,0.0653600692749023,0.1232421398162841,-0.0701730921864509,-0.0419205948710441,-0.0021380267571657
2023-11-30 19:52:40.363382500,2.679382568359375,0.0361493825912475,0.0789575576782226,0.0265476703643798,-0.0707839578390121,-0.0501672700047493,0.0
2023-11-30 19:52:40.381984000,2.69798388671875,0.0170379877090454,0.0958881378173828,-0.0311498641967773,-0.0545960403978824,-0.06146826967597,0.0058032153174281
2023-11-30 19:52:40.400585700,2.716585693359375,0.0369679629802703,0.0629177093505859,-0.0772650241851806,-0.03138317912817,-0.0663551837205886,0.0039706211537122
2023-11-30 19:52:40.419187200,2.735187255859375,0.048587143421173,-0.0502738952636718,-0.1037812232971191,-0.0087811816483736,-0.0608574040234088,-0.003359756199643
2023-11-30 19:52:40.437789000,2.753788818359375,0.0440951883792877,-0.0248260498046875,-0.1083166599273681,0.0245109498500823,-0.0358119495213031,-0.0113009987398982
2023-11-30 19:52:40.456390700,2.772390625,0.1000878363847732,0.0513134002685546,-0.0802662372589111,0.0593302398920059,-0.0095447618514299,-0.0207694023847579
2023-11-30 19:52:40.474992000,2.7909921875,0.1031330823898315,0.035593032836914,-0.0321724414825439,0.0654388889670372,-0.004657844081521,-0.0247400235384702
2023-11-30 19:52:40.493593900,2.80959375,-0.0335846245288848,-0.0140933990478515,-0.0353240966796875,0.0367282442748546,-0.0080176005139946,-0.0207694023847579
2023-11-30 19:52:40.512195300,2.8281953125,-0.1703862845897674,-0.0380220413208007,-0.0425360202789306,-0.0002290742995683,-0.0022143847309052,-0.013439024798572
2023-11-30 19:52:40.530797000,2.846797119140625,-0.1907325088977813,-0.0258502960205078,0.0238406658172607,-0.011224640533328,0.0063377222977578,-0.0106901340186595
2023-11-30 19:52:40.549398500,2.8653984375,-0.0319516062736511,-0.0338354110717773,0.0477910041809082,0.0119882216677069,-0.0003817904798779,-0.0094684036448597
2023-11-30 19:52:40.568000300,2.884000244140625,0.117683857679367,-0.0312471389770507,-0.0176753997802734,0.040698867291212,-0.0220674909651279,-0.0103847011923789
2023-11-30 19:52:40.586601700,2.902601806640625,0.1335592269897461,0.0088567733764648,-0.0537858009338378,0.048334676772356,-0.0309250298887491,-0.0167987812310457
2023-11-30 19:52:40.605203500,2.921203369140625,0.024838387966156,0.0410060882568359,-0.0726232528686523,0.0327576249837875,-0.0165697075426578,-0.0268780495971441
2023-11-30 19:52:40.623805000,2.939804931640625,-0.0777914226055145,0.0676164627075195,-0.0241639614105224,0.0223729219287633,0.0002290742995683,-0.0299323741346597
2023-11-30 19:52:40.642406700,2.95840673828125,-0.0571638047695159,0.0319480895996093,0.0238924026489257,0.0382554084062576,-0.0003817904798779,-0.0274889152497053
2023-11-30 19:52:40.661008100,2.977008056640625,0.0509292930364608,-0.03277587890625,0.0297465324401855,0.0605519711971282,-0.0141262477263808,-0.0207694023847579
2023-11-30 19:52:40.679609900,2.99560986328125,0.0821237117052078,-0.0348262786865234,-0.0124616622924804,0.0694095119833946,-0.0293978676199913,-0.0180205106735229
2023-11-30 19:52:40.698211600,3.014211669921875,0.0136142969131469,-0.0052871704101562,-0.0127744674682617,0.0584139451384544,-0.0290924347937107,-0.0201585385948419
2023-11-30 19:52:40.716813000,3.03281298828125,-0.0678268074989318,0.0639848709106445,-0.0060782432556152,0.0422260276973247,-0.0144316805526614,-0.0268780495971441
2023-11-30 19:52:40.735414800,3.051414794921875,-0.0932586044073104,0.105107307434082,0.0200071334838867,0.0324521921575069,0.0038942629471421,-0.0323758348822593
2023-11-30 19:52:40.754016300,3.070016357421875,-0.0634329319000244,0.0737771987915039,0.0312304496765136,0.0257326792925596,0.011530072428286,-0.0326812639832496
2023-11-30 19:52:40.772618000,3.088617919921875,-0.0387146919965744,0.0235528945922851,0.0080151557922363,0.0180968698114156,0.0093920463696122,-0.0244345907121896
2023-11-30 19:52:40.791219500,3.107219482421875,-0.0381203740835189,-0.0193414688110351,-0.0424246788024902,0.0125990863889455,0.0045051276683807,-0.0167987812310457
2023-11-30 19:52:40.809821200,3.1258212890625,-0.0189879536628723,-0.1113042831420898,-0.0687065124511718,0.0168751403689384,-0.0037415467668324,-0.0143553223460912
2023-11-30 19:52:40.828422700,3.144422607421875,-0.0162163227796554,-0.1695003509521484,-0.0679047107696533,0.0248163808137178,-0.0135153830051422,-0.0210748352110385
2023-11-30 19:52:40.847024400,3.1630244140625,-0.0095004588365554,-0.1444730758666992,-0.026249885559082,0.0312304627150297,-0.0141262477263808,-0.0216856990009546
2023-11-30 19:52:40.865625900,3.1816259765625,-0.0596413314342498,-0.0906209945678711,-0.0091784000396728,0.0269544087350368,-0.0031306820455938,-0.026267185807228
2023-11-30 19:52:40.884227600,3.2002275390625,-0.1517297178506851,0.004347801208496,0.0321226119995117,0.0095447618514299,0.0289397183805704,-0.0290160775184631
2023-11-30 19:52:40.902829000,3.2188291015625,-0.1352947056293487,0.0120820999145507,0.0213427543640136,-0.0096974782645702,0.0536797419190406,-0.0360410213470459
2023-11-30 19:52:40.921430800,3.2374306640625,-0.0506475567817688,0.0109500885009765,-0.0752878189086914,-0.0069485870189964,0.0726165473461151,-0.0329866968095302
2023-11-30 19:52:40.940032500,3.256032470703125,0.066650778055191,0.0795812606811523,-0.1555831432342529,0.0303141642361879,0.0793360620737075,-0.0348192937672138
2023-11-30 19:52:40.958634000,3.274634033203125,0.1764743626117706,0.0632123947143554,-0.1774268150329589,0.067576915025711,0.062537282705307,-0.0342084281146526
2023-11-30 19:52:40.977235700,3.293235595703125,0.0870821848511695,0.0056514739990234,-0.211707592010498,0.0709366723895073,0.0384081229567527,-0.0302378069609403
2023-11-30 19:52:40.995837200,3.311837158203125,-0.1095393151044845,-0.0204734802246093,-0.1459331512451172,0.0428368933498859,0.0356592312455177,-0.0290160775184631
2023-11-30 19:52:41.014439000,3.33043896484375,-0.1794017553329467,-0.0519723892211914,0.0034296512603759,0.0144316805526614,0.0527634471654892,-0.0351247265934944
2023-11-30 19:52:41.033040400,3.349040283203125,-0.1312140375375747,-0.0251846313476562,0.1409132480621338,0.0095447618514299,0.0646753087639808,-0.0409279391169548
2023-11-30 19:52:41.051642000,3.36764208984375,0.0295788347721099,0.0171012878417968,0.2174127101898193,0.0300087314099073,0.0622318498790264,-0.0409279391169548
2023-11-30 19:52:41.070243600,3.38624365234375,0.1190415471792221,0.0302715301513671,0.1794300079345703,0.0471129454672336,0.0515417158603668,-0.0387899130582809
2023-11-30 19:52:41.088845300,3.40484521484375,0.0850676596164703,0.0286264419555664,0.1277353763580322,0.0477238111197948,0.0423787422478199,-0.033902995288372
2023-11-30 19:52:41.107446800,3.42344677734375,0.0128148198127746,0.0412797927856445,0.086940050125122,0.0428368933498859,0.0307723134756088,-0.0299323741346597
2023-11-30 19:52:41.126048500,3.442048583984375,-0.048518493771553,0.0472650527954101,0.057701826095581,0.0504727028310298,0.0191658828407526,-0.0302378069609403
2023-11-30 19:52:41.144650200,3.460650146484375,-0.0075858831405639,0.0449304580688476,0.0390772819519043,0.0727692693471908,0.0090866135433316,-0.0323758348822593
2023-11-30 19:52:41.163251700,3.479251708984375,0.047068566083908,0.0240211486816406,-0.0004148483276367,0.1023962050676345,0.0032833982259035,-0.0378736145794391
2023-11-30 19:52:41.181853400,3.497853515625,0.0571723878383636,-0.005354881286621,-0.0077061653137207,0.1249982044100761,-0.0052687088027596,-0.0427605360746383
2023-11-30 19:52:41.200455000,3.516454833984375,0.0224898308515548,0.0379838943481445,-0.0122742652893066,0.129885122179985,-0.0052687088027596,-0.0387899130582809
2023-11-30 19:52:41.219056400,3.535056396484375,-0.0267073959112167,0.0982532501220703,-0.0060276985168457,0.1219438835978508,0.0020616685505956,-0.0345138609409332
2023-11-30 19:52:41.237658000,3.553658203125,-0.0226646214723587,0.1334896087646484,0.0137977600097656,0.109115719795227,0.0148898288607597,-0.0326812639832496
2023-11-30 19:52:41.256259600,3.572259521484375,0.0033069513738155,0.1165094375610351,0.0460386276245117,0.0862082913517952,0.0194713156670331,-0.0311541035771369
2023-11-30 19:52:41.274861300,3.590861328125,0.0029926802963018,0.0638999938964843,0.0261268615722656,0.0541378892958164,0.0127518018707633,-0.0305432397872209
2023-11-30 19:52:41.293463000,3.609463134765625,-0.0552753992378711,0.0307750701904296,0.0625009536743164,0.0297033004462718,0.0237473677843809,-0.0195476729422807
2023-11-30 19:52:41.312064500,3.628064453125,-0.0758502855896949,-0.0159587860107421,0.0116810798645019,0.0180968698114156,0.0396298542618751,-0.0119118634611368
2023-11-30 19:52:41.330666200,3.646666259765625,-0.0429202169179916,-0.0477933883666992,0.0038204193115234,0.0074067353270947,0.0283288545906543,-0.0116064306348562
2023-11-30 19:52:41.349267700,3.665267822265625,-0.0105912238359451,-0.1013984680175781,-0.0596053600311279,0.0049632764421403,0.0161115583032369,0.0027488914784044
2023-11-30 19:52:41.367869400,3.683869384765625,-0.0441810190677642,-0.0994071960449218,-0.1484882831573486,0.0135153830051422,-0.0135153830051422,0.0061086476780474
2023-11-30 19:52:41.386471000,3.702470947265625,-0.0014766904059797,-0.0941457748413086,-0.0703067779541015,0.0190131664276123,-0.0272598415613174,0.0076358099468052
2023-11-30 19:52:41.405072600,3.72107275390625,0.0221995487809181,-0.0374736785888671,-0.0292692184448242,0.0138208158314228,-0.0138208158314228,0.0045814858749508
2023-11-30 19:52:41.423674000,3.739674072265625,0.0098267747089266,0.0824317932128906,0.0124306678771972,0.0190131664276123,0.0164169911295175,-0.0027488914784044
2023-11-30 19:52:41.442275800,3.75827587890625,0.0855472236871719,0.1121435165405273,0.0991077423095703,0.0358119495213031,0.0316886119544506,-0.0054977829568088
2023-11-30 19:52:41.460877300,3.776877197265625,0.1446453332901001,-0.001408576965332,0.0866000652313232,0.0382554084062576,0.0069485870189964,0.0012217295588925
2023-11-30 19:52:41.479479000,3.79547900390625,0.037909347563982,-0.0794496536254882,0.0230650901794433,0.0229837875813245,-0.037949975579977,0.0116064306348562
2023-11-30 19:52:41.498080500,3.81408056640625,-0.0681909322738647,0.0094661712646484,0.0236334800720214,0.0159588418900966,-0.0559704862534999,0.0204639695584774
2023-11-30 19:52:41.516682200,3.83268212890625,-0.0954400897026062,0.121434211730957,0.0587115287780761,0.0257326792925596,-0.0376445427536964,0.0192422401160001
2023-11-30 19:52:41.535284000,3.851283935546875,-0.063521459698677,0.135040283203125,0.1161491870880127,0.0327576249837875,-0.0071013029664754,0.0167987812310457
2023-11-30 19:52:41.553885400,3.869885498046875,-0.0349683463573455,0.0818595886230468,0.0636560916900634,0.0205403286963701,0.0109192077070474,0.024129157885909
2023-11-30 19:52:41.572487200,3.888487060546875,-0.0203187204897403,0.0394744873046875,-0.0105149745941162,-0.0051159923896193,-0.0006872228696011,0.0357355885207653
2023-11-30 19:52:41.591088600,3.907088623046875,0.0408221557736396,0.0322675704956054,-0.0697550773620605,-0.0164169911295175,-0.0278707053512334,0.0473420210182666
2023-11-30 19:52:41.609690400,3.9256904296875,0.1252192854881286,0.0734109878540039,-0.0714719295501709,0.0040469793602824,-0.0504727028310298,0.0497854799032211
2023-11-30 19:52:41.628291800,3.944291748046875,0.1964851170778274,-0.0024175643920898,-0.0711116790771484,0.0297033004462718,-0.0620791316032409,0.0464257225394248
2023-11-30 19:52:41.646893600,3.9628935546875,0.1315788924694061,-0.0965614318847656,-0.1072349548339843,0.0266489759087562,-0.0602465383708477,0.0418442375957965
2023-11-30 19:52:41.665495000,3.9814951171875,-0.0510399565100669,-0.1022863388061523,-0.0706300735473632,7.63580974307e-05,-0.0559704862534999,0.0400116443634033
2023-11-30 19:52:41.684096800,4.0000966796875,-0.1650713980197906,-0.0643339157104492,0.01798677444458,-0.0228310711681842,-0.057192213833332,0.0390953458845615
2023-11-30 19:52:41.702698200,4.0186982421875,-0.1425626873970031,-0.0232830047607421,0.0801196098327636,-0.0289397183805704,-0.0461966507136821,0.0390953458845615
2023-11-30 19:52:41.721300000,4.037300048828125,-0.0312882140278816,0.0142583847045898,0.0850059986114502,-0.0173332877457141,-0.0373391099274158,0.0290160775184631
2023-11-30 19:52:41.739901700,4.055901611328125,0.0835866779088974,0.0401649475097656,0.1041555404663086,0.0037415467668324,-0.0394771359860897,0.013133592903614
2023-11-30 19:52:41.758503200,4.074503173828125,0.1281183362007141,-0.0048446655273437,0.0427074432373046,0.0135153830051422,-0.0358119495213031,0.0097738364711403
2023-11-30 19:52:41.777105000,4.09310498046875,0.0344312861561775,0.0499820709228515,-0.0233380794525146,-0.0060322894714772,-0.0263435430824756,0.0155770517885684
2023-11-30 19:52:41.795706400,4.111706298828125,-0.0786270275712013,0.0816202163696289,-0.0154578685760498,-0.0304668806493282,-0.0104610593989491,0.0189368072897195
2023-11-30 19:52:41.814308000,4.13030810546875,-0.0404226556420326,0.0550794601440429,0.0407071113586425,-0.0353537984192371,-0.0086284652352333,0.0149661870673298
2023-11-30 19:52:41.832909600,4.14890966796875,0.0849465504288673,0.0128021240234375,0.0488033294677734,-0.021609341725707,-0.0257326792925596,0.0213802680373191
2023-11-30 19:52:41.851511000,4.167510986328125,0.1262426376342773,0.0733356475830078,-0.0174918174743652,-0.0060322894714772,-0.0642171576619148,0.0335975624620914
2023-11-30 19:52:41.870112800,4.18611279296875,0.0077016353607177,0.1084003448486328,-0.0078420639038085,-0.0176387205719947,-0.0910952091217041,0.0375681854784488
2023-11-30 19:52:41.888714500,4.204714599609375,-0.1040562242269516,0.1456813812255859,0.0582809448242187,-0.0735328495502471,-0.0852919965982437,0.036651886999607
2023-11-30 19:52:41.907316000,4.22331591796875,-0.2157035619020462,0.1050453186035156,0.0253458023071289,-0.1392008066177368,-0.0239000841975212,0.0369573198258876
2023-11-30 19:52:41.925917700,4.241917724609375,-0.1630023419857025,0.0944986343383789,-0.006397008895874,-0.169133186340332,0.0151952616870403,0.0323758348822593
2023-11-30 19:52:41.944519200,4.260519287109375,0.0603980645537376,0.0686092376708984,-0.0273561477661132,-0.1300378441810608,-0.0022143847309052,0.0445931293070316
2023-11-30 19:52:41.963121000,4.279120849609375,0.2499682307243347,-0.083836555480957,-0.2569198608398437,-0.0356592312455177,-0.0599411055445671,0.075441800057888
2023-11-30 19:52:41.981722400,4.297722412109375,0.2793024778366089,-0.2074508666992187,-0.5091080665588379,0.058719377964735,-0.1341611742973327,0.0772743970155716
2023-11-30 19:52:42.000324000,4.316323974609375,0.0912721753120422,-0.1850957870483398,-0.4135482311248779,0.1133917719125747,-0.1152243688702583,0.0543669648468494
2023-11-30 19:52:42.018925600,4.334925537109375,-0.1873290687799453,-0.1538591384887695,-0.1725149154663086,0.1185841262340545,-0.0245109498500823,0.0201585385948419
2023-11-30 19:52:42.037527300,4.35352734375,-0.2851250171661377,-0.1491689682006836,0.1523671150207519,0.0965929925441742,0.0442113392055034,-0.0091629717499017
2023-11-30 19:52:42.056128800,4.372128662109375,-0.1857692897319793,-0.101053237915039,0.3425190448760986,0.0651334598660469,0.0710893869400024,-0.0076358099468052
2023-11-30 19:52:42.074730500,4.39073046875,-0.0445881709456443,-0.0680570602416992,0.4121010303497314,0.0272598415613174,0.0579557977616786,0.0143553223460912
2023-11-30 19:52:42.093332200,4.409332275390625,0.0627198815345764,0.0038938522338867,0.4067013263702392,-0.0103083429858088,0.0234419368207454,0.0400116443634033
2023-11-30 19:52:42.111933700,4.42793359375,0.1358691751956939,0.0734786987304687,0.2742116451263428,-0.0246636662632226,0.0158061254769563,0.0580321550369262
2023-11-30 19:52:42.130535400,4.446535400390625,0.1583686023950576,0.1116228103637695,0.0833561420440673,-0.0051159923896193,0.0213039088994264,0.0552832633256912
2023-11-30 19:52:42.149137000,4.465136962890625,0.1454976797103881,0.0165319442749023,-0.0459346771240234,0.0260381121188402,0.0319940410554409,0.0363464541733264
2023-11-30 19:52:42.167738600,4.483738525390625,0.0313097313046455,-0.0687618255615234,-0.1713030338287353,0.0443640537559986,0.0466547980904579,0.0146607551723718
2023-11-30 19:52:42.186340000,4.502340087890625,-0.116169586777687,-0.0966053009033203,-0.246213674545288,0.0422260276973247,0.0622318498790264,0.0012217295588925
2023-11-30 19:52:42.204941600,4.520941650390625,-0.1917771697044372,-0.0727691650390625,-0.2303385734558105,0.0345902182161808,0.0692567974328994,0.0042760535143315
2023-11-30 19:52:42.223543300,4.539543212890625,-0.1298543512821197,-0.0647926330566406,-0.1272780895233154,0.0355065166950225,0.0561232008039951,0.0100792692974209
2023-11-30 19:52:42.242145000,4.55814501953125,0.0125946924090385,-0.0885677337646484,-0.0130031108856201,0.033673919737339,0.0420733131468296,0.0146607551723718
2023-11-30 19:52:42.260746500,4.57674658203125,0.0795302763581276,-0.0755167007446289,0.0775032043457031,0.0138208158314228,0.0466547980904579,0.015882484614849
2023-11-30 19:52:42.279348200,4.59534814453125,0.0883480459451675,-0.0023765563964843,0.0775718688964843,-0.0164169911295175,0.065286174416542,0.0207694023847579
2023-11-30 19:52:42.297949700,4.61394970703125,0.1201577708125114,0.0599794387817382,0.0223557949066162,-0.0338266380131244,0.0723111182451248,0.0213802680373191
2023-11-30 19:52:42.316551400,4.632551513671875,0.1951334178447723,0.0929975509643554,0.0102970600128173,-0.0252745300531387,0.0634535774588584,0.0238237269222736
2023-11-30 19:52:42.335153000,4.65115283203125,0.2199581563472747,0.0747632980346679,-0.0270071029663085,-0.0054214247502386,0.0463493652641773,0.0311541035771369
2023-11-30 19:52:42.353754600,4.669754638671875,0.0639167502522468,0.0489873886108398,-0.0322749614715576,0.0025198173243552,0.029245151206851,0.0403170771896839
2023-11-30 19:52:42.372356000,4.688356201171875,-0.094383604824543,0.0070962905883789,-0.0445504188537597,-0.008475748822093,0.0283288545906543,0.0494800470769405
2023-11-30 19:52:42.390957800,4.706957763671875,-0.134481281042099,-0.0490331649780273,-0.0489509105682373,-0.0283288545906543,0.0359646640717983,0.0537560991942882
2023-11-30 19:52:42.409559300,4.725559326171875,-0.0613753497600555,-0.0381155014038085,-0.0545027256011962,-0.0319940410554409,0.0414624474942684,0.0503963455557823
2023-11-30 19:52:42.428161000,4.7441611328125,0.0674350559711456,-0.018406867980957,-0.013514757156372,-0.0093920463696122,0.0448222048580646,0.0418442375957965
2023-11-30 19:52:42.446762500,4.762762451171875,0.1619303971529007,-0.0629987716674804,0.017848253250122,0.0113773569464683,0.0350483655929565,0.0381790474057197
2023-11-30 19:52:42.465364200,4.7813642578125,0.0681767463684082,-0.1501951217651367,-0.0123867988586425,0.0101556265726685,0.0124463699758052,0.0406225062906742
2023-11-30 19:52:42.483966000,4.799966064453125,-0.0740292146801948,-0.1552915573120117,-0.0306160449981689,-0.008475748822093,-0.0089338971301913,0.0436768308281898
2023-11-30 19:52:42.502567400,4.8185673828125,-0.1387824118137359,-0.0704793930053711,0.0432491302490234,-0.0268016923218965,-0.0125990863889455,0.0458148568868637
2023-11-30 19:52:42.521169000,4.8371689453125,-0.0780518725514411,-0.027256965637207,0.0917084217071533,-0.0350483655929565,-0.0043524117209017,0.0479528866708278
2023-11-30 19:52:42.539770600,4.8557705078125,0.0583378821611404,0.040175437927246,0.1022970676422119,-0.0420733131468296,0.004810560029,0.0543669648468494
2023-11-30 19:52:42.558372000,4.8743720703125,0.1288307160139084,0.0399045944213867,0.0659120082855224,-0.0637590140104293,0.011530072428286,0.0616973415017128
2023-11-30 19:52:42.576973800,4.892973876953125,0.0963368117809295,0.040719985961914,-0.0075976848602294,-0.0897207632660865,0.0274125561118125,0.0705548822879791
2023-11-30 19:52:42.595575600,4.911575439453125,0.0843322724103927,0.1016817092895507,-0.0551245212554931,-0.0973565727472305,0.0432950407266616,0.0751363709568977
2023-11-30 19:52:42.614177000,4.930177001953125,0.088380180299282,0.0853729248046875,-0.0825355052947998,-0.0842229798436164,0.0365755297243595,0.0745255053043365
2023-11-30 19:52:42.632778800,4.94877880859375,0.0591563433408737,0.0753421783447265,-0.1113429069519043,-0.0658970400691032,0.0179441533982753,0.0745255053043365
2023-11-30 19:52:42.651380200,4.967380126953125,-0.0489617176353931,0.0586366653442382,-0.0855288505554199,-0.0515417158603668,0.0121409371495246,0.0736092031002044
2023-11-30 19:52:42.669982000,4.98598193359375,-0.1448244601488113,-0.008763313293457,-0.020920991897583,-0.0460439324378967,0.0145843969658017,0.0702494531869888
2023-11-30 19:52:42.688583400,5.00458349609375,-0.1461719572544098,-0.0741586685180664,0.0842254161834716,-0.0509308502078056,0.0133626665920019,0.0598647482693195
2023-11-30 19:52:42.707185000,5.023184814453125,-0.1111620962619781,-0.1167573928833007,0.1664502620697021,-0.0646753087639808,0.011530072428286,0.0543669648468494
2023-11-30 19:52:42.725786600,5.04178662109375,-0.0616916641592979,-0.0921602249145507,0.160912275314331,-0.0851392820477485,0.004810560029,0.0558941289782524
2023-11-30 19:52:42.744388400,5.060388427734375,-0.0082108899950981,-0.0674390792846679,0.123044729232788,-0.1028543561697006,-0.0034361144062131,0.0595593154430389
2023-11-30 19:52:42.762989800,5.07898974609375,0.0241524875164031,-0.0566263198852539,0.0706584453582763,-0.1083521395921707,-0.0125990863889455,0.0638353675603866
2023-11-30 19:52:42.781591600,5.097591552734375,0.0774932503700256,-0.014021873474121,0.0373880863189697,-0.0967457070946693,-0.0275652725249528,0.0684168562293052
2023-11-30 19:52:42.800193000,5.116193115234375,0.1048772931098938,-0.0020380020141601,0.0079200267791748,-0.0771980360150337,-0.0367282442748546,0.0656679645180702
2023-11-30 19:52:42.818794800,5.134794677734375,0.1184436231851577,0.0293474197387695,0.0578153133392334,-0.0573449321091175,-0.0284815710037946,0.0586430206894874
2023-11-30 19:52:42.837396200,5.153396240234375,0.0830015987157821,-0.0146465301513671,0.027850866317749,-0.0393244214355945,-0.0211511924862861,0.0513126403093338
2023-11-30 19:52:42.855998000,5.171998046875,0.0292788743972778,-0.0123882293701171,0.023406982421875,-0.0298560168594121,-0.0226783547550439,0.0430659651756286
2023-11-30 19:52:42.874599400,5.190599365234375,-0.0129890292882919,-0.066812515258789,0.0140502452850341,-0.0329103395342826,-0.0196240302175283,0.0329866968095302
2023-11-30 19:52:42.893201200,5.209201171875,-0.0488981753587722,-0.1645526885986328,0.0184876918792724,-0.0362700968980789,-0.0083230324089527,0.0320704020559787
2023-11-30 19:52:42.911802600,5.227802734375,-0.0472455918788909,-0.0720462799072265,-0.0149765014648437,-0.0100029110908508,0.0130572346970438,0.0311541035771369
2023-11-30 19:52:42.930404400,5.246404296875,0.0924130752682685,0.0065631866455078,-0.0008625984191894,0.0251218136399984,0.042989607900381,0.0216856990009546
2023-11-30 19:52:42.949005800,5.265005859375,0.1366327404975891,0.0226097106933593,-0.0215153694152832,0.0306195970624685,0.0607046857476234,0.0119118634611368
2023-11-30 19:52:42.967607600,5.283607666015625,0.0269766747951507,-0.0302352905273437,-0.0966744422912597,0.0107664912939071,0.0545960403978824,0.0042760535143315
2023-11-30 19:52:42.986209000,5.302208984375,-0.0365520566701889,-0.1147108078002929,-0.1253077983856201,-0.0136680994182825,0.0454330667853355,0.0058032153174281
2023-11-30 19:52:43.004810800,5.320810791015625,-0.0101968944072723,-0.139017105102539,-0.0713350772857666,-0.0255799628794193,0.040240716189146,0.0082466742023825
2023-11-30 19:52:43.023412200,5.339412109375,0.0873937681317329,-0.0636100769042968,0.0302944183349609,-0.0274125561118125,0.0387135557830333,0.0106901340186595
2023-11-30 19:52:43.042014000,5.358013916015625,0.140097290277481,0.0289058685302734,0.1102817058563232,-0.0264962594956159,0.0353537984192371,0.0177150778472423
2023-11-30 19:52:43.060615400,5.376615478515625,0.1557994931936264,0.1214332580566406,0.0541925430297851,-0.0319940410554409,0.0194713156670331,0.0314595364034175
2023-11-30 19:52:43.079217200,5.395217041015625,0.1499082744121551,0.0600109100341796,-0.0068578720092773,-0.0374918244779109,0.001450803829357,0.0403170771896839
2023-11-30 19:52:43.097819000,5.41381884765625,0.0742795169353485,-0.0106353759765625,0.0105819702148437,-0.040240716189146,0.001450803829357,0.0387899130582809
2023-11-30 19:52:43.116420400,5.43242041015625,-0.0063306391239166,0.0108900070190429,0.0460050106048584,-0.0365755297243595,0.008475748822093,0.0348192937672138
2023-11-30 19:52:43.135022000,5.45102197265625,-0.0623261630535125,-0.0264110565185546,0.0378322601318359,-0.0362700968980789,-0.0034361144062131,0.0305432397872209
2023-11-30 19:52:43.153623600,5.46962353515625,-0.0748498886823654,-0.0259294509887695,0.0021517276763916,-0.0319940410554409,-0.0174860041588544,0.0250454563647508
2023-11-30 19:52:43.172225000,5.48822509765625,-0.09793022274971,-0.0275650024414062,-0.0187306404113769,-0.0252745300531387,-0.0092393299564719,0.0076358099468052
2023-11-30 19:52:43.190826800,5.50682666015625,-0.1282683610916137,0.0436038970947265,0.0354602336883544,-0.0200821794569492,0.0054214247502386,-0.0100792692974209
2023-11-30 19:52:43.209428200,5.52542822265625,-0.1013756841421127,0.0832471847534179,0.0662221908569336,-0.0066431546583771,-0.0071013029664754,-0.0299323741346597
2023-11-30 19:52:43.228030000,5.544030029296875,-0.0307645797729492,0.1567420959472656,0.0924041271209716,0.0202348958700895,-0.0269544087350368,-0.0458148568868637
2023-11-30 19:52:43.246631700,5.562631591796875,0.0308629423379898,0.1748085021972656,0.0273129940032959,0.046807512640953,-0.037949975579977,-0.0537560991942882
2023-11-30 19:52:43.265233200,5.581233154296875,0.0128796696662902,0.1311006546020507,-0.0887415409088134,0.0666606202721595,-0.046807512640953,-0.0503963455557823
2023-11-30 19:52:43.283835000,5.5998349609375,-0.0179366767406463,0.1040124893188476,-0.1739492416381836,0.0862082913517952,-0.0596356727182865,-0.0415388047695159
2023-11-30 19:52:43.302436400,5.618436279296875,-0.0587428361177444,0.0122241973876953,-0.1673641204833984,0.1002581790089607,-0.073380134999752,-0.0372627526521682
2023-11-30 19:52:43.321037800,5.637037841796875,-0.1144499033689498,-0.0268363952636718,-0.0475549697875976,0.0904843434691429,-0.0584139451384544,-0.0461202897131443
2023-11-30 19:52:43.339639600,5.6556396484375,-0.1718577593564987,-0.0259132385253906,0.0207495689392089,0.0718529671430587,-0.0348956510424613,-0.0458148568868637
2023-11-30 19:52:43.358241300,5.6742412109375,-0.1425742954015731,0.0067520141601562,-0.0191202163696289,0.0581085123121738,-0.0410043001174926,-0.0378736145794391
2023-11-30 19:52:43.376842800,5.6928427734375,-0.084547534584999,0.0413398742675781,-0.0510439872741699,0.0568867810070514,-0.0562759190797805,-0.0293215103447437
2023-11-30 19:52:43.395444500,5.711444580078125,-0.013918325304985,-0.003859519958496,-0.0099384784698486,0.0578030794858932,-0.0681877806782722,-0.0287106446921825
2023-11-30 19:52:43.414046000,5.7300458984375,0.0219332203269004,-0.0169696807861328,-0.0066564083099365,0.06146826967597,-0.0636062920093536,-0.024129157885909
2023-11-30 19:52:43.432647700,5.748647705078125,0.0709300711750984,0.0770721435546875,0.0173628330230712,0.0819322392344474,-0.0449749194085598,-0.0216856990009546
2023-11-30 19:52:43.451249200,5.767249267578125,0.1379908174276352,0.081273078918457,-0.0265114307403564,0.095982126891613,-0.0397825688123703,-0.0256563201546669
2023-11-30 19:52:43.469850600,5.7858505859375,0.0824479907751083,-0.016942024230957,-0.0708143711090087,0.0929278060793876,-0.0578030794858932,-0.0284052118659019
2023-11-30 19:52:43.488452400,5.804452392578125,-0.0404513254761695,-0.0752954483032226,-0.0809879302978515,0.07796161621809,-0.0608574040234088,-0.0256563201546669
2023-11-30 19:52:43.507054000,5.82305419921875,-0.1519539207220077,-0.0828027725219726,-0.0102906227111816,0.0513890013098716,-0.0452803522348403,-0.026267185807228
2023-11-30 19:52:43.525655600,5.841655517578125,-0.177847757935524,-0.0484981536865234,0.053563117980957,0.0263435430824756,-0.028176138177514,-0.0284052118659019
2023-11-30 19:52:43.544257300,5.86025732421875,-0.1286016404628753,-0.0466909408569335,0.0514149665832519,0.0129045182839035,-0.0287870019674301,-0.0287106446921825
2023-11-30 19:52:43.562858800,5.878858642578125,-0.0140966437757015,-0.0412893295288085,0.0226545333862304,0.0116827888414263,-0.0348956510424613,-0.0271834824234247
2023-11-30 19:52:43.581460500,5.89746044921875,0.0701915323734283,0.0124378204345703,-0.0259723663330078,0.0144316805526614,-0.0361173786222934,-0.0265726186335086
2023-11-30 19:52:43.600062000,5.91606201171875,0.1043856218457222,0.0376491546630859,-0.0519490242004394,0.0220674909651279,-0.0361173786222934,-0.0253508891910314
2023-11-30 19:52:43.618663700,5.93466357421875,0.0758986622095108,0.0130443572998046,-0.0999410152435302,0.0300087314099073,-0.0388662703335285,-0.0195476729422807
2023-11-30 19:52:43.637265200,5.95326513671875,0.0385131575167179,-0.0111246109008789,-0.1072256565093994,0.036422811448574,-0.040698867291212,-0.0140498895198106
2023-11-30 19:52:43.655867000,5.971866943359375,-0.0104761738330125,-0.019134521484375,-0.0782961845397949,0.0342847853899002,-0.036422811448574,-0.0122172953560948
2023-11-30 19:52:43.674468400,5.99046826171875,-0.063750222325325,-0.0402078628540039,-0.07440185546875,0.0245109498500823,-0.0239000841975212,-0.0155770517885684
2023-11-30 19:52:43.693070000,6.009070068359375,-0.0781166777014732,-0.0205459594726562,-0.0185785293579101,0.0171805713325738,-0.0083230324089527,-0.0171042140573263
2023-11-30 19:52:43.711671600,6.027671630859375,-0.0244250949472188,-0.0085258483886718,-0.032660961151123,0.0141262477263808,-0.0049632764421403,-0.0143553223460912
2023-11-30 19:52:43.730273300,6.046273193359375,0.0332119911909103,0.0135259628295898,-0.0236985683441162,0.0144316805526614,-0.015653409063816,-0.0137444576248526
2023-11-30 19:52:43.748874800,6.064874755859375,0.0579940341413021,0.0093488693237304,-0.0068607330322265,0.015347977168858,-0.0251218136399984,-0.0143553223460912
2023-11-30 19:52:43.767476500,6.0834765625,0.0498618707060813,-0.0030441284179687,0.0082349777221679,0.0150425452739,-0.0235946513712406,-0.0137444576248526
2023-11-30 19:52:43.786078000,6.102077880859375,0.0316237956285476,0.0025787353515625,0.0241355895996093,0.0086284652352333,-0.0174860041588544,-0.0122172953560948
2023-11-30 19:52:43.804679700,6.1206796875,0.0117694213986396,-0.0305166244506835,0.0306906700134277,-0.0023671009112149,-0.0150425452739,-0.0100792692974209
2023-11-30 19:52:43.823281200,6.13928125,0.0199640803039073,-0.0351686477661132,0.0103979110717773,-0.0096974782645702,-0.015653409063816,-0.0070249447599053
2023-11-30 19:52:43.841883000,6.1578828125,0.0175175219774246,0.0071649551391601,0.0261297225952148,-0.0057268571108579,-0.0162642747163772,-0.0006108647794462
2023-11-30 19:52:43.860484400,6.176484375,0.0394287221133708,0.0095157623291015,-0.0043084621429443,-0.0066431546583771,-0.0132099511101841,-0.0030543238390237
2023-11-30 19:52:43.879086000,6.195086181640625,0.0104168057441711,0.0549907684326171,0.0258493423461914,-0.004810560029,0.0078648841008543,-0.0021380267571657
2023-11-30 19:52:43.897687600,6.2136875,0.038067527115345,0.0195074081420898,-0.0733370780944824,-0.0002290742995683,0.0026725335046648,-0.0012217295588925
2023-11-30 19:52:43.916289300,6.232289306640625,0.0010372884571552,0.0738782882690429,-0.0630068778991699,0.0101556265726685,-0.0031306820455938,0.0009162971982732
2023-11-30 19:52:43.934890800,6.250890869140625,0.0350494757294654,0.0211248397827148,-0.0421538352966308,0.0162642747163772,-0.0080176005139946,-0.0030543238390237
2023-11-30 19:52:43.953492500,6.269492431640625,0.0481801629066467,-0.067840576171875,-0.0190906524658203,0.0168751403689384,-0.0022143847309052,-0.002443459117785
2023-11-30 19:52:43.972094000,6.288093994140625,0.0541624650359153,-0.0043907165527343,-0.0328450202941894,0.0345902182161808,0.011530072428286,-0.0030543238390237
2023-11-30 19:52:43.990695700,6.30669580078125,0.0933843255043029,0.1051769256591796,0.0333976745605468,0.0553596206009388,0.0151952616870403,-0.0076358099468052
2023-11-30 19:52:44.009297200,6.325297119140625,0.0930160805583,0.0408277511596679,0.0683434009552002,0.0636062920093536,0.0035888305865228,-0.0097738364711403
2023-11-30 19:52:44.027899000,6.34389892578125,0.0061398521065711,-0.0405340194702148,0.032097578048706,0.0526107288897037,-0.0052687088027596,-0.0094684036448597
2023-11-30 19:52:44.046500400,6.362500244140625,-0.0669919401407241,-0.0712919235229492,0.0479412078857421,0.0266489759087562,0.0051159923896193,-0.0070249447599053
2023-11-30 19:52:44.065102000,6.38110205078125,-0.1275117844343185,-0.0525312423706054,0.0509459972381591,-0.0002290742995683,0.011224640533328,-0.0100792692974209
2023-11-30 19:52:44.083703600,6.39970361328125,-0.1343535482883453,-0.0457820892333984,0.0278835296630859,-0.0124463699758052,0.0072540193796157,-0.0140498895198106
2023-11-30 19:52:44.102305300,6.41830517578125,-0.0854141041636467,-0.0494184494018554,0.0283675193786621,-0.0136680994182825,0.0069485870189964,-0.0167987812310457
2023-11-30 19:52:44.120906800,6.43690673828125,-0.0554086714982986,-0.0961694717407226,0.004798412322998,-0.0161115583032369,0.0032833982259035,-0.0195476729422807
2023-11-30 19:52:44.139508500,6.455508544921875,-0.055550392717123,-0.0920925140380859,0.0138180255889892,-0.0200821794569492,-0.0012980876490473,-0.0122172953560948
2023-11-30 19:52:44.158110000,6.47410986328125,-0.0352162718772888,-0.0859327316284179,-0.0322000980377197,-0.0213039088994264,-0.0098501946777105,-0.003359756199643
2023-11-30 19:52:44.176711700,6.492711669921875,-0.0212766006588935,-0.048903465270996,-0.0611534118652343,-0.0203876122832298,-0.0150425452739,0.0058032153174281
2023-11-30 19:52:44.195313200,6.511313232421875,-0.0060721412301063,-0.0098743438720703,-0.0826547145843505,-0.0148898288607597,-0.0196240302175283,0.006719512399286
2023-11-30 19:52:44.213915000,6.529914794921875,0.0005216151475906,-0.0018815994262695,-0.0543413162231445,-0.0109192077070474,-0.0208457615226507,0.003359756199643
2023-11-30 19:52:44.232516400,6.548516357421875,0.0037953928112983,0.0351581573486328,0.0066719055175781,-0.0103083429858088,-0.0125990863889455,-0.0018325943965464
2023-11-30 19:52:44.251118000,6.5671181640625,-0.0094148628413677,0.0503396987915039,0.0668487548828125,-0.0167224239557981,0.0008399390499107,-0.0058032153174281
2023-11-30 19:52:44.269719600,6.585719482421875,-0.0042867586016654,0.0278091430664062,0.0988271236419677,-0.0234419368207454,0.0057268571108579,-0.0021380267571657
2023-11-30 19:52:44.288321300,6.6043212890625,0.0490682795643806,0.0165510177612304,0.0716180801391601,-0.0289397183805704,-0.0055741411633789,0.0039706211537122
2023-11-30 19:52:44.306922800,6.6229228515625,0.0784259736537933,-0.0006179809570312,0.0660810470581054,-0.032604906708002,-0.0223729219287633,0.0085521070286631
2023-11-30 19:52:44.325524500,6.6415244140625,0.0486257635056972,0.0075511932373046,0.0349869728088378,-0.0368809625506401,-0.0229837875813245,0.006719512399286
2023-11-30 19:52:44.344126000,6.6601259765625,-0.0202510990202426,-2.95639038085e-05,0.0225355625152587,-0.0381026901304721,-0.0095447618514299,-0.0021380267571657
2023-11-30 19:52:44.362727700,6.678727783203125,-0.069485105574131,-0.0221738815307617,0.0297358036041259,-0.0368809625506401,0.001450803829357,-0.0082466742023825
2023-11-30 19:52:44.381329200,6.6973291015625,-0.06655203551054,-0.0246868133544921,0.0007717609405517,-0.0381026901304721,-0.0037415467668324,-0.0058032153174281
2023-11-30 19:52:44.399931000,6.715930908203125,-0.0473782047629356,-0.0119218826293945,-0.0333170890808105,-0.0365755297243595,-0.0196240302175283,0.0018325943965464
2023-11-30 19:52:44.418532400,6.734532470703125,0.014771768823266,-0.0045242309570312,-0.039421796798706,-0.0399352833628654,-0.0290924347937107,0.0015271619195118
2023-11-30 19:52:44.437134000,6.753134033203125,0.0208192318677902,0.0350236892700195,0.0352439880371093,-0.0423787422478199,-0.015653409063816,-0.0061086476780474
2023-11-30 19:52:44.455735600,6.771735595703125,0.0323546826839447,0.0455150604248046,0.0040102005004882,-0.0393244214355945,0.0011453714687377,-0.0125227281823754
2023-11-30 19:52:44.474337300,6.790337158203125,-0.0054467562586069,0.0812435150146484,0.0107109546661376,-0.0377972573041915,0.0142789641395211,-0.013133592903614
2023-11-30 19:52:44.492938800,6.808938720703125,-0.0145029611885547,0.0535507202148437,0.0461523532867431,-0.0371863916516304,0.0087811816483736,-0.0164933484047651
2023-11-30 19:52:44.511540500,6.82754052734375,0.0407319329679012,-0.0735912322998046,0.0559480190277099,-0.0405461490154266,-0.0098501946777105,-0.0152716198936104
2023-11-30 19:52:44.530142000,6.846141845703125,0.0584855079650878,-0.0431814193725585,0.0107378959655761,-0.0304668806493282,-0.0214566253125667,-0.0097738364711403
2023-11-30 19:52:44.548743700,6.86474365234375,0.0917703583836555,0.0590076446533203,0.018167495727539,-0.0066431546583771,-0.0208457615226507,-0.0122172953560948
2023-11-30 19:52:44.567345200,6.88334521484375,0.0754059702157974,0.035552978515625,0.0378072261810302,0.0012980876490473,-0.0150425452739,-0.0149661870673298
2023-11-30 19:52:44.585947000,6.90194677734375,-0.0434379130601882,-0.0221357345581054,-0.0309977531433105,-0.0069485870189964,-0.0196240302175283,-0.0183259434998035
2023-11-30 19:52:44.604548400,6.92054833984375,-0.1212599352002143,-0.0507030487060546,-0.0574514865875244,-0.0225256383419036,-0.0232892204076051,-0.0177150778472423
2023-11-30 19:52:44.623150000,6.939150146484375,-0.0941554754972457,-0.0411529541015625,-0.0321052074432373,-0.0319940410554409,-0.0260381121188402,-0.0164933484047651
2023-11-30 19:52:44.641751600,6.95775146484375,-0.0391726046800613,-0.015578269958496,0.0443809032440185,-0.0295505840331316,-0.0348956510424613,-0.0210748352110385
2023-11-30 19:52:44.660353000,6.97635302734375,0.0395467691123485,-0.0103883743286132,0.0895829200744628,-0.0173332877457141,-0.0465020798146724,-0.0244345907121896
2023-11-30 19:52:44.678954800,6.994954833984375,0.0977993309497833,-0.0113029479980468,0.1094136238098144,-0.011530072428286,-0.0651334598660469,-0.0284052118659019
2023-11-30 19:52:44.697556500,7.013556396484375,0.0667927861213684,-0.049178123474121,0.1140558719635009,-0.022220205515623,-0.0611628368496894,-0.0335975624620914
2023-11-30 19:52:44.716158000,7.032157958984375,-0.0671699196100235,-0.0259466171264648,0.1141588687896728,-0.0359646640717983,-0.0461966507136821,-0.0415388047695159
2023-11-30 19:52:44.734759700,7.050759765625,-0.1231349110603332,0.0201168060302734,0.1092374324798584,-0.0332157723605632,-0.0425314605236053,-0.0464257225394248
2023-11-30 19:52:44.753361200,7.069361083984375,-0.0645735114812851,0.0390090942382812,0.0566926002502441,-0.0167224239557981,-0.0492509715259075,-0.0476474538445472
2023-11-30 19:52:44.771962600,7.087962646484375,0.0110983587801456,0.0131492614746093,-0.0361285209655761,-0.0069485870189964,-0.0437531881034374,-0.0510072074830532
2023-11-30 19:52:44.790564400,7.106564453125,-0.0183695219457149,0.0325756072998046,-0.0831036567687988,-0.0130572346970438,-0.0162642747163772,-0.0528398044407367
2023-11-30 19:52:44.809165800,7.125165771484375,-0.0649892091751098,0.1145534515380859,-0.0893840789794921,-0.0249690972268581,0.0139735322445631,-0.0500909127295017
2023-11-30 19:52:44.827767600,7.143767578125,-0.047742772847414,0.1142597198486328,-0.1289434432983398,-0.0231365039944648,0.0191658828407526,-0.0424551032483577
2023-11-30 19:52:44.846369300,7.162369384765625,0.0684510394930839,0.0704584121704101,-0.1440954208374023,-0.0072540193796157,-0.0067958706058561,-0.0314595364034175
2023-11-30 19:52:44.864970800,7.180970703125,0.1567739248275756,0.0535163879394531,-0.1288926601409912,0.0116827888414263,-0.0391717031598091,-0.0216856990009546
2023-11-30 19:52:44.883572500,7.199572509765625,0.1252272427082061,0.0179090499877929,-0.0852293968200683,0.0217620581388473,-0.048334676772356,-0.0177150778472423
2023-11-30 19:52:44.902174000,7.218174072265625,0.0381390340626239,-0.0192251205444335,-0.0211551189422607,0.0171805713325738,-0.0342847853899002,-0.0171042140573263
2023-11-30 19:52:44.920775400,7.236775390625,-0.0508742444217205,-0.0340299606323242,0.03379487991333,0.0019089524867013,-0.0190131664276123,-0.0161879174411296
2023-11-30 19:52:44.939377200,7.255377197265625,-0.0572221353650093,-0.0264482498168945,0.0355770587921142,-0.0142789641395211,-0.0162642747163772,-0.0152716198936104
2023-11-30 19:52:44.957979000,7.273978759765625,-0.0403242520987987,0.0006818771362304,0.0258338451385498,-0.0234419368207454,-0.0141262477263808,-0.0125227281823754
2023-11-30 19:52:44.976580400,7.292580322265625,-0.0340133644640445,0.0175075531005859,0.003976821899414,-0.0264962594956159,-0.0031306820455938,-0.0097738364711403
2023-11-30 19:52:44.995181800,7.311181884765625,-0.0311871320009231,0.0255403518676757,-0.0200624465942382,-0.029245151206851,0.0136680994182825,-0.013439024798572
2023-11-30 19:52:45.013783600,7.329783447265625,-0.0117609724402427,0.0365114212036132,-0.0317556858062744,-0.0301614478230476,0.0191658828407526,-0.006719512399286
2023-11-30 19:52:45.032385000,7.348385009765625,-0.0029510036110877,0.0137233734130859,-0.061047077178955,-0.0374918244779109,-0.0055741411633789,0.0012217295588925
2023-11-30 19:52:45.050986800,7.36698681640625,-0.0876518189907074,0.036447525024414,-0.0206761360168457,-0.0478765256702899,-0.015653409063816,0.0113009987398982
2023-11-30 19:52:45.069588200,7.385588134765625,-0.0680445060133934,-0.0577106475830078,0.0131230354309082,-0.0619264170527458,-0.0141262477263808,0.0116064306348562
2023-11-30 19:52:45.088190000,7.40418994140625,-0.0204614475369453,-0.0721635818481445,-0.0017879009246826,-0.0689513608813285,-0.0031306820455938,0.0119118634611368
2023-11-30 19:52:45.106791400,7.42279150390625,0.0222409516572952,0.0658931732177734,-0.012275218963623,-0.0500145554542541,0.0170278549194335,0.0073303775861859
2023-11-30 19:52:45.125393200,7.44139306640625,0.1319568753242492,0.0370645523071289,0.0155391693115234,-0.0243582334369421,0.018860450014472,0.0073303775861859
2023-11-30 19:52:45.143994600,7.45999462890625,0.1170136779546737,-0.0147991180419921,-0.0118722915649414,-0.0124463699758052,-0.0064904382452368,0.013133592903614
2023-11-30 19:52:45.162596400,7.478596435546875,0.0305574908852577,-0.0359153747558593,-0.0772593021392822,-0.0087811816483736,-0.0245109498500823,0.0204639695584774
2023-11-30 19:52:45.181197800,7.49719775390625,0.0079746916890144,-0.0532913208007812,-0.0365376472473144,-0.0133626665920019,-0.0129045182839035,0.0216856990009546
2023-11-30 19:52:45.199799600,7.515799560546875,-0.0192327946424484,-0.029449462890625,0.0011050701141357,-0.0240528006106615,0.0194713156670331,0.0122172953560948
2023-11-30 19:52:45.218401000,7.534401123046875,-0.0212960392236709,0.0103683471679687,0.0445837974548339,-0.0307723134756088,0.0490982569754123,0.0009162971982732
2023-11-30 19:52:45.237002800,7.553002685546875,-0.0003107786178588,0.0366773605346679,0.0283031463623046,-0.0301614478230476,0.0576503649353981,-0.0027488914784044
2023-11-30 19:52:45.255604200,7.571604248046875,0.0566407591104507,0.0096960067749023,0.0024440288543701,-0.0280234217643737,0.0377972573041915,-0.0015271619195118
2023-11-30 19:52:45.274206000,7.5902060546875,0.0675323903560638,-0.0219964981079101,-0.0310208797454834,-0.0274125561118125,0.0130572346970438,0.0018325943965464
2023-11-30 19:52:45.292807400,7.608807373046875,0.0722367465496063,-0.005197525024414,-0.0542521476745605,-0.0213039088994264,0.0002290742995683,-0.0021380267571657
2023-11-30 19:52:45.311409200,7.6274091796875,0.0821888148784637,0.011418342590332,-0.0571813583374023,-0.0121409371495246,0.0029779658652842,-0.0128281600773334
2023-11-30 19:52:45.330010600,7.6460107421875,0.0680329203605651,0.0427379608154296,-0.0217006206512451,-0.001450803829357,0.0118355052545666,-0.0357355885207653
2023-11-30 19:52:45.348612400,7.6646123046875,0.052899844944477,0.0531015396118164,0.0287644863128662,0.0037415467668324,0.0298560168594121,-0.0540615320205688
2023-11-30 19:52:45.367213800,7.6832138671875,0.039989173412323,0.0499401092529296,-0.0031595230102539,-0.0002290742995683,0.0274125561118125,-0.0635299384593963
2023-11-30 19:52:45.385815600,7.701815673828125,0.0634700879454612,0.0207195281982421,-0.0554366111755371,-0.0029779658652842,0.001450803829357,-0.0687222853302955
2023-11-30 19:52:45.404417000,7.7204169921875,0.0984333381056785,-0.0468873977661132,-0.0565145015716552,-0.0057268571108579,0.0002290742995683,-0.0748309344053268
2023-11-30 19:52:45.423018800,7.739018798828125,0.1065709590911865,-0.0545072555541992,-0.0053737163543701,-0.011224640533328,0.0032833982259035,-0.0726929083466529
2023-11-30 19:52:45.441620200,7.7576201171875,0.0523899719119071,0.0394201278686523,-0.0219030380249023,-0.0145843969658017,-0.0138208158314228,-0.0497854799032211
2023-11-30 19:52:45.460222000,7.776221923828125,0.0575984567403793,0.1186599731445312,-0.0063087940216064,-0.0069485870189964,-0.0397825688123703,-0.0299323741346597
2023-11-30 19:52:45.478823400,7.794823486328125,0.0871008560061454,0.0603218078613281,0.1412286758422851,0.0095447618514299,-0.0474183782935142,-0.015882484614849
2023-11-30 19:52:45.497425000,7.8134248046875,0.0274397954344749,0.0147666931152343,0.2438428401947021,0.0211511924862861,-0.0492509715259075,-0.0003054323897231
2023-11-30 19:52:45.516026600,7.832026611328125,-0.0837869048118591,-0.0146589279174804,0.2875714302062988,0.0196240302175283,-0.0642171576619148,0.0054977829568088
2023-11-30 19:52:45.534628400,7.85062841796875,-0.132740244269371,-0.0237665176391601,0.3070430755615234,0.0159588418900966,-0.057192213833332,-0.0042760535143315
2023-11-30 19:52:45.553229800,7.869229736328125,-0.1000228300690651,-0.0438489913940429,0.247514009475708,0.0129045182839035,-0.0458912178874015,-0.0082466742023825
2023-11-30 19:52:45.571831300,7.887831298828125,-0.0347977727651596,-0.0254449844360351,0.0462474822998046,0.0119882216677069,-0.0532215945422649,0.0048869182355701
2023-11-30 19:52:45.590433000,7.90643310546875,-0.1036417633295059,0.096506118774414,-0.084831953048706,0.0208457615226507,-0.0691040754318237,-0.0018325943965464
2023-11-30 19:52:45.609034500,7.925034423828125,-0.1384739726781845,0.099945068359375,-0.0093512535095214,0.0370336771011352,-0.0498618371784687,-0.0180205106735229
2023-11-30 19:52:45.627636200,7.94363623046875,-0.0897000208497047,-0.0548286437988281,-0.0071020126342773,0.0388662703335285,-0.046807512640953,-0.0308486707508564
2023-11-30 19:52:45.646238000,7.962238037109375,-0.0653389245271682,-0.1811084747314453,-0.2172186374664306,0.0278707053512334,-0.0849865600466728,-0.0375681854784488
2023-11-30 19:52:45.664839400,7.98083935546875,-0.021542765200138,-0.1768178939819336,-0.2808105945587158,0.0312304627150297,-0.0712421014904975,-0.0464257225394248
2023-11-30 19:52:45.683441000,7.99944091796875,0.0389636009931564,-0.0487737655639648,-0.2883734703063965,0.0367282442748546,-0.0104610593989491,-0.0448985621333122
2023-11-30 19:52:45.702042600,8.018042724609375,0.0278380066156387,0.0607814788818359,-0.3645520210266113,0.0416151620447635,0.0167224239557981,-0.0378736145794391
2023-11-30 19:52:45.720644000,8.03664404296875,-0.0679196789860725,0.1594486236572265,-0.2417261600494384,0.0742964297533035,-0.0101556265726685,-0.0213802680373191
2023-11-30 19:52:45.739245800,8.055245849609374,-0.058147232979536,-0.0809078216552734,-0.0331218242645263,0.0852919965982437,-0.0584139451384544,-0.0244345907121896
2023-11-30 19:52:45.757847300,8.073847412109375,-0.0885862857103347,-0.2129249572753906,0.2074520587921142,0.0495564043521881,-0.0541378892958164,-0.0027488914784044
2023-11-30 19:52:45.776449000,8.092448974609376,-0.1535124480724334,-0.0004167556762695,0.2304089069366455,0.0074067353270947,-0.0190131664276123,0.0268780495971441
2023-11-30 19:52:45.795050500,8.111050537109374,-0.1359520554542541,0.2266035079956054,0.3155062198638916,0.0052687088027596,0.0011453714687377,0.0207694023847579
2023-11-30 19:52:45.813652200,8.12965234375,0.0945985019207,0.0764484405517578,0.4933631420135498,0.0159588418900966,-0.0116827888414263,0.0082466742023825
2023-11-30 19:52:45.832253700,8.148253662109376,0.2131277024745941,-0.1433219909667968,0.4573569297790527,0.0052687088027596,-0.0413097292184829,0.0140498895198106
2023-11-30 19:52:45.850855400,8.16685546875,0.1024178266525268,-0.1115779876708984,0.3085019588470459,-0.0161115583032369,-0.0553596206009388,0.0363464541733264
2023-11-30 19:52:45.869457000,8.185456787109375,-0.0610113963484764,0.0564651489257812,0.0223710536956787,-0.0191658828407526,-0.0455857850611209,0.0403170771896839
2023-11-30 19:52:45.888058600,8.20405859375,-0.1086884438991546,0.1258544921875,-0.1457149982452392,0.0058795735239982,-0.0208457615226507,0.0122172953560948
2023-11-30 19:52:45.906660000,8.22266015625,-0.0092066805809736,0.0038013458251953,-0.2432165145874023,0.0382554084062576,0.0261908266693353,-0.0204639695584774
2023-11-30 19:52:45.925261600,8.241261474609376,-0.0581919997930526,-0.0573081970214843,-0.2900025844573974,0.0568867810070514,0.0628427118062973,-0.0354301556944847
2023-11-30 19:52:45.943863300,8.25986328125,-0.1408934146165847,-0.002568244934082,-0.2402131557464599,0.0651334598660469,0.054901473224163,-0.0488691814243793
2023-11-30 19:52:45.962465000,8.278465087890625,-0.1267670840024948,0.0088071823120117,-0.0263037681579589,0.0605519711971282,0.0475710928440094,-0.0555886961519718
2023-11-30 19:52:45.981066500,8.29706640625,-0.0566318146884441,-0.0205459594726562,0.0884582996368408,0.0397825688123703,0.0454330667853355,-0.0397062115371227
2023-11-30 19:52:45.999668000,8.31566796875,-0.0338202752172946,-0.0574855804443359,0.0704202651977539,0.0095447618514299,0.0225256383419036,-0.0164933484047651
2023-11-30 19:52:46.018269700,8.334269775390625,0.0169671736657619,-0.0499954223632812,0.0002970695495605,-0.0127518018707633,-0.0061850058846175,-0.013133592903614
2023-11-30 19:52:46.036871200,8.35287109375,0.0583737604320049,-0.0675935745239257,-0.0272059440612792,-0.0167224239557981,-7.63580974307e-05,-0.0259617529809474
2023-11-30 19:52:46.055473000,8.371472900390625,0.05114271864295,0.0082597732543945,-0.1305732727050781,0.0028252496849745,0.0173332877457141,-0.0332921296358108
2023-11-30 19:52:46.074074400,8.390074462890626,0.0073857801035046,0.0804128646850586,-0.2776634693145752,0.0333684869110584,0.0081703159958124,-0.0458148568868637
2023-11-30 19:52:46.092676000,8.408676025390625,0.0033714363817125,0.0478391647338867,-0.2213091850280761,0.0617737025022506,0.0142789641395211,-0.0702494531869888
2023-11-30 19:52:46.111277600,8.427277587890625,-0.0185426753014326,0.051579475402832,-0.0824332237243652,0.0749072954058647,0.0591775253415107,-0.0937677472829818
2023-11-30 19:52:46.129879300,8.44587939453125,-0.0470935441553592,0.0337038040161132,-0.0337100028991699,0.0721584036946296,0.0872773081064224,-0.1053741723299026
2023-11-30 19:52:46.148480800,8.464480712890625,-0.0709192752838134,-0.0285816192626953,-0.0808372497558593,0.0620791316032409,0.0753654390573501,-0.1035415828227996
2023-11-30 19:52:46.167082500,8.48308251953125,-0.0784214437007904,-0.1771659851074218,-0.1361804008483886,0.0507781356573104,0.0573449321091175,-0.0806341543793678
2023-11-30 19:52:46.185684000,8.50168408203125,-0.079300545156002,-0.1262130737304687,-0.0753388404846191,0.0361173786222934,0.0591775253415107,-0.036651886999607
2023-11-30 19:52:46.204285700,8.52028564453125,-0.1699607074260711,0.2117156982421875,0.0048174858093261,0.0239000841975212,0.0683404952287674,0.0045814858749508
2023-11-30 19:52:46.222887200,8.53888720703125,-0.1222325563430786,0.4527273178100586,0.1076171398162841,0.0229837875813245,0.0634535774588584,0.0140498895198106
2023-11-30 19:52:46.241488600,8.557488525390625,0.1515105813741684,0.3664264678955078,0.2170634269714355,0.0147371124476194,0.0454330667853355,0.0106901340186595
2023-11-30 19:52:46.260090400,8.57609033203125,0.3456990420818329,0.1041679382324218,0.1470110416412353,-0.011530072428286,-0.0040469793602824,0.0253508891910314
2023-11-30 19:52:46.278692000,8.594692138671874,0.3139566779136657,-0.0792093276977539,0.0408906936645507,-0.0344375036656856,-0.0562759190797805,0.0418442375957965
2023-11-30 19:52:46.297293600,8.61329345703125,0.171292245388031,-0.0850706100463867,0.0791831016540527,-0.0329103395342826,-0.048334676772356,0.0430659651756286
2023-11-30 19:52:46.315895300,8.631895263671876,-0.0090393424034118,0.0278444290161132,0.194657564163208,-0.007559451740235,0.0219147745519876,0.0287106446921825
2023-11-30 19:52:46.334496800,8.650496826171874,-0.1586986184120178,0.0671224594116211,0.2148303985595703,0.0165697075426578,0.0924696549773216,0.0183259434998035
2023-11-30 19:52:46.353098200,8.66909814453125,-0.2745246589183807,0.0779676437377929,0.1808342933654785,0.0187077336013317,0.1132390573620796,0.0320704020559787
2023-11-30 19:52:46.371700000,8.687699951171876,-0.2732190489768982,0.041299819946289,0.0759973526000976,0.0016035200096666,0.0823903903365135,0.0623082071542739
2023-11-30 19:52:46.390301700,8.7063017578125,-0.1724817454814911,-0.0920982360839843,0.0062739849090576,-0.0209984760731458,0.0310777463018894,0.0919351503252983
2023-11-30 19:52:46.408903200,8.724903076171875,-0.0490788184106349,-0.1462211608886718,-0.0131304264068603,-0.0411570146679878,-0.0165697075426578,0.1130099818110466
2023-11-30 19:52:46.427504600,8.743504638671874,0.0447848848998546,-0.1194753646850586,-0.0897369384765625,-0.054901473224163,-0.0376445427536964,0.1221729591488838
2023-11-30 19:52:46.446106400,8.7621064453125,0.064609445631504,-0.089385986328125,-0.1535296440124511,-0.0561232008039951,-0.025427246466279,0.1185077652335167
2023-11-30 19:52:46.464707800,8.780707763671876,0.0612193048000335,-0.0904960632324218,-0.1860570907592773,-0.0475710928440094,0.0005345066892914,0.0983492285013198
2023-11-30 19:52:46.483309600,8.7993095703125,0.0023338617756962,-0.0701198577880859,-0.1351673603057861,-0.0258853957056999,0.0289397183805704,0.0711657479405403
2023-11-30 19:52:46.501911000,8.8179111328125,-0.0190708115696907,-0.0319547653198242,-0.1209380626678466,0.0049632764421403,0.0512362830340862,0.0497854799032211
2023-11-30 19:52:46.520512800,8.8365126953125,0.016991252079606,-0.0372133255004882,-0.1133284568786621,0.0339793525636196,0.0448222048580646,0.0320704020559787
2023-11-30 19:52:46.539114200,8.8551142578125,0.0687245875597,-0.1168155670166015,-0.0412397384643554,0.0461966507136821,0.0310777463018894,0.0204639695584774
2023-11-30 19:52:46.557716000,8.873716064453125,0.0668439716100692,-0.1303720474243164,0.0208044052124023,0.040698867291212,0.0225256383419036,0.0216856990009546
2023-11-30 19:52:46.576317400,8.8923173828125,0.0093291513621807,-0.1016101837158203,0.0890684127807617,0.025427246466279,0.0032833982259035,0.0238237269222736
2023-11-30 19:52:46.594919200,8.910919189453125,0.0033002258278429,-0.0701284408569336,0.100473403930664,0.0138208158314228,-0.0092393299564719,0.0253508891910314
2023-11-30 19:52:46.613520600,8.929520751953126,0.0396191552281379,-0.0293731689453125,0.0606930255889892,0.0067958706058561,-0.0138208158314228,0.0293215103447437
2023-11-30 19:52:46.632122000,8.9481220703125,0.0723689123988151,-0.022841453552246,0.0086627006530761,0.0022143847309052,-0.0232892204076051,0.0357355885207653
2023-11-30 19:52:46.650723800,8.966723876953125,0.0435102134943008,0.0510511398315429,-0.0195577144622802,0.0012980876490473,-0.0226783547550439,0.0381790474057197
2023-11-30 19:52:46.669325300,8.9853251953125,0.0185031685978174,0.1209888458251953,0.0083358287811279,0.0086284652352333,-0.0119882216677069,0.0427605360746383
2023-11-30 19:52:46.687927000,9.003927001953125,-0.0075022093951702,0.0895261764526367,-0.0290744304656982,0.0077121676877141,-0.0077121676877141,0.0390953458845615
2023-11-30 19:52:46.706528800,9.02252880859375,0.0097515471279621,0.0695199966430664,-0.0199472904205322,0.0107664912939071,-0.0067958706058561,0.0403170771896839
2023-11-30 19:52:46.725130200,9.041130126953124,0.0352612510323524,0.0491704940795898,-0.0614364147186279,0.0071013029664754,-0.0159588418900966,0.0400116443634033
2023-11-30 19:52:46.743731700,9.059731689453123,-0.0367336980998516,0.1049880981445312,-0.0009863376617431,7.63580974307e-05,-0.0162642747163772,0.0397062115371227
2023-11-30 19:52:46.762333400,9.07833349609375,-0.00593270547688,0.0329599380493164,0.0202639102935791,-0.0060322894714772,-0.0132099511101841,0.0387899130582809
2023-11-30 19:52:46.780935000,9.096934814453125,0.0280828438699245,-0.051497459411621,0.026019811630249,-0.0158061254769563,-0.0064904382452368,0.044287696480751
2023-11-30 19:52:46.799536600,9.11553662109375,0.0445235520601272,-0.0083189010620117,0.0313189029693603,-0.0139735322445631,0.0069485870189964,0.047036588191986
2023-11-30 19:52:46.818138000,9.13413818359375,0.0749843791127204,0.0839033126831054,0.0675976276397705,-0.018860450014472,0.0161115583032369,0.0427605360746383
2023-11-30 19:52:46.836739600,9.152739501953125,0.0281087271869182,0.0696573257446289,0.0565369129180908,-0.0335212051868438,0.0130572346970438,0.0455094277858734
2023-11-30 19:52:46.855341300,9.17134130859375,0.0040298588573932,-0.015359878540039,0.0074489116668701,-0.0503199845552444,0.001450803829357,0.0500909127295017
2023-11-30 19:52:46.873943000,9.189943115234374,0.0401667058467865,-0.0646944046020507,0.0449798107147216,-0.0603992566466331,-0.0095447618514299,0.0549778304994106
2023-11-30 19:52:46.892544500,9.20854443359375,0.0661520957946777,-0.0476245880126953,0.0561854839324951,-0.0579557977616786,-0.0184023007750511,0.0577267222106456
2023-11-30 19:52:46.911146200,9.227146240234376,0.0755693614482879,-0.0537967681884765,0.0407984256744384,-0.0439059063792228,-0.0263435430824756,0.0568104237318038
2023-11-30 19:52:46.929747700,9.245747802734376,0.0755025073885917,-0.080540657043457,-0.0114715099334716,-0.0219147745519876,-0.0248163808137178,0.0525343716144561
2023-11-30 19:52:46.948349200,9.26434912109375,0.0287020429968833,-0.1282901763916015,-0.0407006740570068,-0.0041996953077614,-0.0119882216677069,0.0467311553657054
2023-11-30 19:52:46.966951000,9.282950927734374,-0.0359367206692695,-0.1183509826660156,-0.0834438800811767,0.0019089524867013,0.0127518018707633,0.0378736145794391
2023-11-30 19:52:46.985552600,9.301552734375,-0.1172977611422538,-0.0158252716064453,-0.0921695232391357,0.0040469793602824,0.029245151206851,0.0280997790396213
2023-11-30 19:52:47.004154000,9.320154052734376,-0.1183044463396072,0.0322370529174804,-0.0946955680847168,0.0122936535626649,0.0307723134756088,0.0213802680373191
2023-11-30 19:52:47.022755600,9.338755615234374,-0.0306450724601745,0.0368232727050781,-0.0806820392608642,0.0199294630438089,0.0258853957056999,0.0219911318272352
2023-11-30 19:52:47.041357300,9.357357421875,0.0369518846273422,0.0101470947265625,-0.0859327316284179,0.0217620581388473,0.0219147745519876,0.024129157885909
2023-11-30 19:52:47.059958800,9.375958740234376,0.0388305932283401,-0.0039424896240234,-0.0745167732238769,0.0190131664276123,0.0151952616870403,0.0265726186335086
2023-11-30 19:52:47.078560500,9.394560546875,0.0210872199386358,-0.009653091430664,-0.0278525352478027,0.0168751403689384,0.0051159923896193,0.0317649692296981
2023-11-30 19:52:47.097162000,9.413161865234375,0.0504552312195301,-0.0505390167236328,-0.0017204284667968,0.0147371124476194,-0.0083230324089527,0.0360410213470459
2023-11-30 19:52:47.115763700,9.431763671875,0.0608505830168724,-0.0284919738769531,0.0184271335601806,0.0116827888414263,-0.0129045182839035,0.0363464541733264
2023-11-30 19:52:47.134365200,9.450365234375,0.0513248294591903,-0.0035877227783203,0.0416975021362304,0.0083230324089527,-0.0074067353270947,0.0308486707508564
2023-11-30 19:52:47.152967000,9.468966796875,0.0301220789551734,0.0196609497070312,0.0423114299774169,0.0089338971301913,0.0041996953077614,0.0213802680373191
2023-11-30 19:52:47.171568400,9.487568359375,0.0093583669513463,0.0095787048339843,0.0473651885986328,0.0089338971301913,0.0145843969658017,0.0113009987398982
2023-11-30 19:52:47.190170000,9.506170166015623,-0.022032830864191,-0.0149106979370117,0.0238916873931884,0.0086284652352333,0.022220205515623,0.0061086476780474
2023-11-30 19:52:47.208771600,9.524771484375,-0.0369180142879486,-0.0299100875854492,0.0009539127349853,0.0095447618514299,0.0228310711681842,0.0030543238390237
2023-11-30 19:52:47.227373000,9.543373046875,-0.0080194827169179,-0.0220527648925781,-0.0161669254302978,0.0098501946777105,0.0191658828407526,0.0012217295588925
2023-11-30 19:52:47.245974800,9.561974853515624,-0.0040123565122485,0.003127098083496,-0.0014870166778564,0.0074067353270947,0.0170278549194335,0.0006108647794462
2023-11-30 19:52:47.264576300,9.580576171875,0.0004613418132066,-0.0172119140625,-0.0212664604187011,0.0016035200096666,0.0310777463018894,-0.0073303775861859
2023-11-30 19:52:47.283178000,9.599177978515623,-0.0036931114736944,0.0208845138549804,0.0219635963439941,0.0037415467668324,0.0558177679777145,-0.0088575389236211
2023-11-30 19:52:47.301779500,9.617779541015626,0.0698265507817268,0.0206241607666015,-0.0375893115997314,0.0122936535626649,0.0384081229567527,-0.0061086476780474
2023-11-30 19:52:47.320381000,9.636380859375,0.0492856577038764,0.087869644165039,-0.0095314979553222,0.0263435430824756,0.0167224239557981,-0.0027488914784044
2023-11-30 19:52:47.338982700,9.654982666015623,0.0599982067942619,-0.0225954055786132,0.0276939868927001,0.0300087314099073,0.001450803829357,-0.013439024798572
2023-11-30 19:52:47.357584400,9.67358447265625,0.0401407107710838,-0.1485824584960937,0.114262580871582,0.0113773569464683,0.0054214247502386,-0.013133592903614
2023-11-30 19:52:47.376185900,9.692185791015625,-0.0405296124517917,-0.1227550506591796,0.0592343807220459,-0.0002290742995683,0.0243582334369421,-0.0058032153174281
2023-11-30 19:52:47.394787600,9.71078759765625,0.0072968285530805,-0.0075654983520507,0.0585770606994628,0.0034361144062131,0.0371863916516304,-0.0003054323897231
2023-11-30 19:52:47.413389000,9.72938916015625,0.0490368455648422,0.0297355651855468,0.0144379138946533,0.0086284652352333,0.0301614478230476,0.0079412423074245
2023-11-30 19:52:47.431990500,9.747990478515623,0.0324806347489357,0.0252647399902343,-0.084519624710083,0.0129045182839035,0.0142789641395211,0.0119118634611368
2023-11-30 19:52:47.450592300,9.76659228515625,-0.0002517811954021,0.0124492645263671,-0.0738580226898193,0.0095447618514299,0.0151952616870403,0.0149661870673298
2023-11-30 19:52:47.469194000,9.785194091796876,-0.0597159191966056,0.0169830322265625,-0.0571043491363525,0.0003817904798779,0.0246636662632226,0.0174096468836069
2023-11-30 19:52:47.487795500,9.80379541015625,-0.0674429982900619,0.0284357070922851,-0.0148572921752929,-0.0096974782645702,0.0203876122832298,0.0164933484047651
2023-11-30 19:52:47.506397000,9.82239697265625,-0.0463738739490509,0.0473670959472656,0.0107884407043457,-0.0054214247502386,0.0069485870189964,0.0171042140573263
2023-11-30 19:52:47.524998700,9.84099853515625,0.0390258766710758,0.0107812881469726,0.0436861515045166,0.0061850058846175,-7.63580974307e-05,0.0161879174411296
2023-11-30 19:52:47.543600000,9.85960009765625,0.0754974782466888,-0.0323553085327148,0.0779566764831543,0.0083230324089527,0.001450803829357,0.015882484614849
2023-11-30 19:52:47.562201900,9.878201904296876,0.0491964668035507,-0.0450611114501953,0.0637814998626709,-0.0011453714687377,0.0057268571108579,0.0125227281823754
2023-11-30 19:52:47.580803300,9.89680322265625,0.0218393709510564,-0.0360994338989257,0.0824530124664306,-0.0109192077070474,0.0093920463696122,0.013133592903614
2023-11-30 19:52:47.599404800,9.91540478515625,0.032498687505722,-0.0271539688110351,0.0655574798583984,-0.0161115583032369,-0.0025198173243552,0.0167987812310457
2023-11-30 19:52:47.618006500,9.934006591796877,0.021144276484847,-0.015228271484375,0.0429179668426513,-0.0151952616870403,-0.0135153830051422,0.0201585385948419
2023-11-30 19:52:47.636608300,9.952608154296875,0.0247131213545799,-0.017003059387207,0.0167555809020996,-0.0133626665920019,-0.0104610593989491,0.0204639695584774
2023-11-30 19:52:47.655209700,9.971209716796874,-0.0116670206189155,-0.0327720642089843,-0.0177395343780517,-0.0136680994182825,-0.0012980876490473,0.0183259434998035
2023-11-30 19:52:47.673811200,9.989811279296877,-0.0350658819079399,-0.0464677810668945,-0.0328245162963867,-0.0167224239557981,0.0081703159958124,0.0164933484047651
2023-11-30 19:52:47.692413000,10.008412841796876,-0.0458436608314514,-0.0443735122680664,-0.0428144931793212,-0.0200821794569492,0.0087811816483736,0.0161879174411296
2023-11-30 19:52:47.711014400,10.027014404296876,-0.0428849533200264,-0.0425090789794921,-0.0539181232452392,-0.0182495843619108,-0.0028252496849745,0.0186313763260841
2023-11-30 19:52:47.729616100,10.0456162109375,-0.0089237699285149,-0.0817842483520507,-0.0456271171569824,-0.0078648841008543,-0.0211511924862861,0.0232128612697124
2023-11-30 19:52:47.748217600,10.064217529296876,0.016879292204976,-0.1104345321655273,-0.0217576026916503,0.0077121676877141,-0.0352010838687419,0.0277943480759859
2023-11-30 19:52:47.766819300,10.0828193359375,-0.0105266226455569,-0.1233711242675781,-0.0244858264923095,0.0187077336013317,-0.0394771359860897,0.0271834824234247
2023-11-30 19:52:47.785420800,10.1014208984375,-0.0653746351599693,-0.1184558868408203,-0.0388195514678955,0.0104610593989491,-0.0361173786222934,0.023518294095993
2023-11-30 19:52:47.804022500,10.1200224609375,-0.1585400700569152,-0.0994510650634765,-0.0231387615203857,-0.0200821794569492,-0.0199294630438089,0.0198531057685613
2023-11-30 19:52:47.822624000,10.1386240234375,-0.2176247984170913,-0.0269336700439453,0.0059137344360351,-0.0573449321091175,0.001450803829357,0.0119118634611368
2023-11-30 19:52:47.841225500,10.1572255859375,-0.169446587562561,0.0665359497070312,0.0761647224426269,-0.0790306329727172,0.0142789641395211,0.0045814858749508
2023-11-30 19:52:47.859827200,10.1758271484375,-0.0066194385290145,0.1070537567138671,0.1165621280670166,-0.0820849537849426,0.0133626665920019,-0.0048869182355701
2023-11-30 19:52:47.878428700,10.1944287109375,0.1436183154582977,0.1328029632568359,0.1310248374938964,-0.0753654390573501,0.0130572346970438,-0.0100792692974209
2023-11-30 19:52:47.897030400,10.213030517578124,0.2509129345417022,0.1288156509399414,0.0847573280334472,-0.0616209842264652,-0.0006872228696011,-0.006719512399286
2023-11-30 19:52:47.915631900,10.2316318359375,0.196396455168724,0.1473340988159179,0.0121643543243408,-0.0545960403978824,-0.0239000841975212,0.0027488914784044
2023-11-30 19:52:47.934233600,10.250233642578126,0.0737970769405365,0.1163673400878906,-0.0351920127868652,-0.0607046857476234,-0.0339793525636196,0.003359756199643
2023-11-30 19:52:47.952835000,10.2688349609375,-0.0021082237362861,0.0203151702880859,-0.0170433521270751,-0.0759763047099113,-0.0226783547550439,0.0012217295588925
2023-11-30 19:52:47.971436800,10.287436767578123,-0.0377224385738372,0.0315093994140625,-0.0655155181884765,-0.0863610059022903,-0.0086284652352333,0.0058032153174281
2023-11-30 19:52:47.990038300,10.306038330078126,-0.0079730823636055,0.099217414855957,-0.0985727310180664,-0.0649807378649711,-0.0058795735239982,0.0070249447599053
2023-11-30 19:52:48.008640000,10.324639892578125,0.1454442739486694,0.0767955780029296,-0.0873560905456543,-0.0271071251481771,-0.0089338971301913,0.006719512399286
2023-11-30 19:52:48.027241500,10.343241455078124,0.1427707374095916,0.0374507904052734,-0.1020941734313964,0.0025198173243552,-0.0074067353270947,0.0018325943965464
2023-11-30 19:52:48.045843000,10.361843017578124,-0.0028329864144325,-0.0339975357055664,-0.1142945289611816,0.0180968698114156,0.0170278549194335,-0.0061086476780474
2023-11-30 19:52:48.064444700,10.380444580078125,-0.1167855560779571,-0.0254716873168945,-0.044830322265625,0.0187077336013317,0.0570394992828369,-0.013133592903614
2023-11-30 19:52:48.083046100,10.399046142578126,-0.156962513923645,-0.0215530395507812,0.0271112918853759,0.0104610593989491,0.072921983897686,-0.0152716198936104
2023-11-30 19:52:48.101648000,10.41764794921875,-0.1057666018605232,0.0008182525634765,0.0629961490631103,0.000992655288428,0.0655916035175323,-0.0109955659136176
2023-11-30 19:52:48.120249300,10.436249267578123,-0.0200867801904678,0.0104904174804687,0.0933353900909423,-0.0017562361899763,0.0558177679777145,-0.0061086476780474
2023-11-30 19:52:48.138851000,10.45485107421875,0.0559804663062095,-0.0336809158325195,0.0852372646331787,-0.0045051276683807,0.0454330667853355,-0.0018325943965464
2023-11-30 19:52:48.157452500,10.47345263671875,0.0791998878121376,-0.0169687271118164,0.0704944133758544,-0.0145843969658017,0.0393244214355945,0.0027488914784044
2023-11-30 19:52:48.176054300,10.49205419921875,0.0222946032881736,0.0152797698974609,0.0171101093292236,-0.0243582334369421,0.0319940410554409,0.0048869182355701
2023-11-30 19:52:48.194655700,10.51065576171875,0.0036339312791824,0.031987190246582,-0.0178756713867187,-0.0258853957056999,0.0237473677843809,0.0058032153174281
2023-11-30 19:52:48.213257200,10.52925732421875,0.0232266634702682,0.0441398620605468,-0.0547881126403808,-0.0182495843619108,0.0130572346970438,0.0088575389236211
2023-11-30 19:52:48.231859000,10.54785888671875,0.0326460301876068,0.0162420272827148,-0.0866975784301757,-0.0087811816483736,-0.0019089524867013,0.0125227281823754
2023-11-30 19:52:48.250460400,10.56646044921875,0.0486765652894973,-0.0183115005493164,-0.0746741294860839,-0.0038942629471421,-0.0107664912939071,0.0152716198936104
2023-11-30 19:52:48.269062100,10.585062255859375,0.0112262219190597,-0.032414436340332,-0.0338242053985595,-0.0087811816483736,-0.0122936535626649,0.0164933484047651
2023-11-30 19:52:48.287663600,10.60366357421875,-0.0364100784063339,-0.0170230865478515,-0.0204086303710937,-0.0167224239557981,-0.0122936535626649,0.0161879174411296
2023-11-30 19:52:48.306265300,10.622265380859377,-0.0343977063894271,-0.0023794174194335,0.0060346126556396,-0.022220205515623,-0.0074067353270947,0.0167987812310457
2023-11-30 19:52:48.324866800,10.64086669921875,-0.0078928917646408,0.0084829330444335,0.0178816318511962,-0.0225256383419036,-0.0031306820455938,0.0161879174411296
2023-11-30 19:52:48.343468500,10.659468505859374,0.0276751667261123,-0.0147695541381835,0.011965274810791,-0.0176387205719947,-0.0006872228696011,0.0152716198936104
2023-11-30 19:52:48.362070000,10.678070068359377,0.0287565886974334,0.0058622360229492,-0.0088412761688232,-0.008475748822093,0.0005345066892914,0.013439024798572
2023-11-30 19:52:48.380671500,10.69667138671875,0.0412422269582748,0.0189714431762695,-0.018874168395996,0.0040469793602824,0.0020616685505956,0.0070249447599053
2023-11-30 19:52:48.399273200,10.715273193359376,0.021276831626892,0.0469770431518554,-0.021573781967163,0.0083230324089527,0.011530072428286,0.0
2023-11-30 19:52:48.417874700,10.733874755859375,-0.0316251516342163,0.0023107528686523,-0.0251846313476562,0.0037415467668324,0.0277179889380931,-0.0073303775861859
2023-11-30 19:52:48.436476400,10.752476318359374,-0.0593828856945037,-0.0391836166381835,0.0118279457092285,-0.0057268571108579,0.0399352833628654,-0.0100792692974209
2023-11-30 19:52:48.455078000,10.771077880859377,-0.0584385842084884,-0.0433130264282226,0.0109126567840576,-0.0142789641395211,0.0481819584965705,-0.0103847011923789
2023-11-30 19:52:48.473679600,10.7896796875,-0.0415017455816268,-0.0426149368286132,0.0346674919128418,-0.0176387205719947,0.0478765256702899,-0.0103847011923789
2023-11-30 19:52:48.492281000,10.808281005859374,0.0039591789245605,-0.0778932571411132,0.0348687171936035,-0.0081703159958124,0.034132070839405,-0.0006108647794462
2023-11-30 19:52:48.510882800,10.8268828125,0.01572085916996,-0.0257806777954101,0.0265743732452392,-0.0002290742995683,0.0072540193796157,0.0054977829568088
2023-11-30 19:52:48.529484300,10.845484375,-0.0231567472219467,0.0050525665283203,0.0753335952758789,-0.0063377222977578,0.0017562361899763,0.0054977829568088
2023-11-30 19:52:48.548085800,10.864085693359376,-0.0251804590225219,-0.0338344573974609,0.0433192253112793,-0.0237473677843809,0.018860450014472,0.003359756199643
2023-11-30 19:52:48.566687500,10.8826875,-0.0190487056970596,0.0537586212158203,-0.0425910949707031,-0.0219147745519876,0.0387135557830333,0.0027488914784044
2023-11-30 19:52:48.585289000,10.9012890625,0.0927158445119857,0.1484584808349609,-0.0488123893737793,0.0092393299564719,0.0457384996116161,-0.0030543238390237
2023-11-30 19:52:48.603890700,10.919890625,0.2011166512966156,0.1003980636596679,-0.0338156223297119,0.0315358936786651,0.022220205515623,-0.0027488914784044
2023-11-30 19:52:48.622492200,10.9384921875,0.0962677299976348,0.0145473480224609,-0.0851039886474609,0.0232892204076051,-0.0135153830051422,0.0045814858749508
2023-11-30 19:52:48.641094000,10.957093994140624,-0.0951705425977706,-0.0373029708862304,-0.0849802494049072,-0.004810560029,-0.0300087314099073,0.0091629717499017
2023-11-30 19:52:48.659695400,10.9756953125,-0.1962103694677353,-0.036421775817871,-0.0200333595275878,-0.0322994738817215,-0.0312304627150297,0.0106901340186595
2023-11-30 19:52:48.678297000,10.994297119140626,-0.1434603184461593,-0.0239067077636718,0.0570611953735351,-0.0420733131468296,-0.0303141642361879,0.0106901340186595
2023-11-30 19:52:48.696898600,11.012898681640625,-0.0269165635108947,0.010197639465332,0.1143169403076171,-0.0381026901304721,-0.033673919737339,0.0103847011923789
2023-11-30 19:52:48.715500000,11.0315,0.086022138595581,0.0138616561889648,0.087888479232788,-0.0356592312455177,-0.0403934344649314,0.0088575389236211
2023-11-30 19:52:48.734101800,11.050101806640624,0.0906472653150558,-0.0222234725952148,0.036649465560913,-0.041767880320549,-0.0373391099274158,0.0070249447599053
2023-11-30 19:52:48.752703200,11.068703125,0.0082621425390243,-0.0312223434448242,-0.0016849040985107,-0.050625417381525,-0.0303141642361879,0.0058032153174281
2023-11-30 19:52:48.771305000,11.087304931640626,-0.0343426018953323,-0.0212326049804687,-0.0027868747711181,-0.0484873913228511,-0.0174860041588544,0.0030543238390237
2023-11-30 19:52:48.789906400,11.105906494140624,-0.0151524096727371,-0.0023126602172851,-0.0169837474822998,-0.0374918244779109,-0.0098501946777105,0.0009162971982732
2023-11-30 19:52:48.808508200,11.124508056640623,0.0012276917695999,0.0030431747436523,-0.0581922531127929,-0.022220205515623,-0.0080176005139946,0.0003054323897231
2023-11-30 19:52:48.827109600,11.143109619140626,0.013219267129898,0.0353927612304687,-0.0795423984527587,-0.011530072428286,-0.0043524117209017,0.0
2023-11-30 19:52:48.845711400,11.16171142578125,0.011243313550949,0.0272560119628906,-0.0500214099884033,-0.0081703159958124,0.0020616685505956,-0.003359756199643
2023-11-30 19:52:48.864312800,11.180312744140624,-0.0039446651935577,0.0288991928100585,-0.0406708717346191,-0.0103083429858088,0.0069485870189964,-0.0051923505961894
2023-11-30 19:52:48.882914300,11.198914306640624,-0.0063684880733489,0.0268220901489257,-0.012247085571289,-0.0121409371495246,0.0063377222977578,-0.0030543238390237
2023-11-30 19:52:48.901516000,11.21751611328125,0.0113276541233062,0.0154762268066406,0.0223784446716308,-0.011224640533328,0.0008399390499107,-0.0009162971982732
2023-11-30 19:52:48.920117500,11.236117431640626,0.0339633524417877,-0.019906997680664,0.0306599140167236,-0.0100029110908508,-0.0016035200096666,-0.0006108647794462
2023-11-30 19:52:48.938719200,11.25471923828125,0.0109058916568756,-0.0180778503417968,0.038794994354248,-0.0106137758120894,-0.0006872228696011,0.0
2023-11-30 19:52:48.957320700,11.27332080078125,0.0157241821289062,-0.0105915069580078,0.0129737854003906,-0.0148898288607597,-0.0016035200096666,-0.0006108647794462
2023-11-30 19:52:48.975922400,11.29192236328125,-0.0060329139232635,-0.0243387222290039,0.0088527202606201,-0.018860450014472,-0.0019089524867013,0.0
2023-11-30 19:52:48.994524000,11.31052392578125,-0.0214869678020477,0.0160808563232421,0.0017383098602294,-0.0170278549194335,-0.000992655288428,0.0012217295588925
2023-11-30 19:52:49.013125600,11.329125732421875,-0.0190153121948242,0.0563926696777343,-0.0157902240753173,-0.0054214247502386,0.0029779658652842,0.0027488914784044
2023-11-30 19:52:49.031727000,11.34772705078125,0.0018064081668853,0.080179214477539,-0.0215582847595214,0.004657844081521,0.0109192077070474,-0.0015271619195118
2023-11-30 19:52:49.050328600,11.36632861328125,0.0401891320943832,0.0617742538452148,-0.0548434257507324,0.0101556265726685,0.0100029110908508,0.0006108647794462
2023-11-30 19:52:49.068930300,11.384930419921876,0.0223132371902465,-0.0136194229125976,-0.0996901988983154,0.0067958706058561,-0.0217620581388473,0.0015271619195118
2023-11-30 19:52:49.087531800,11.40353173828125,-0.0705033093690872,-0.0341978073120117,-0.039142370223999,-0.008475748822093,-0.0431423261761665,0.0073303775861859
2023-11-30 19:52:49.106133500,11.422133544921875,-0.1324987411499023,-0.084721565246582,0.0515651702880859,-0.032604906708002,-0.0449749194085598,0.0119118634611368
2023-11-30 19:52:49.124735000,11.44073486328125,-0.122280865907669,-0.0599002838134765,0.0624294281005859,-0.0377972573041915,-0.0397825688123703,0.0125227281823754
2023-11-30 19:52:49.143336700,11.459336669921877,0.0535235106945037,0.0417776107788085,0.0884237289428711,-0.0127518018707633,-0.0397825688123703,0.0106901340186595
2023-11-30 19:52:49.161938200,11.477938232421875,0.2490217238664627,-0.0213794708251953,0.1108040809631347,0.0012980876490473,-0.0501672700047493,0.0128281600773334
2023-11-30 19:52:49.180540000,11.496539794921874,0.1538111120462417,-0.0550003051757812,0.0166738033294677,-0.0237473677843809,-0.0581085123121738,0.0164933484047651
2023-11-30 19:52:49.199141400,11.515141357421877,-0.0648909211158752,-0.0328569412231445,-0.0646615028381347,-0.0524580143392086,-0.0526107288897037,0.0146607551723718
2023-11-30 19:52:49.217742800,11.533742919921876,-0.1015218794345855,0.0325403213500976,-0.0455360412597656,-0.05337430909276,-0.0330630578100681,0.0106901340186595
2023-11-30 19:52:49.236344600,11.552344482421876,0.0077085793018341,0.0480432510375976,-0.0254528522491455,-0.0277179889380931,-0.0150425452739,0.0061086476780474
2023-11-30 19:52:49.254946000,11.570946044921875,0.1183868050575256,0.0843791961669921,0.0059459209442138,-0.0002290742995683,-0.0135153830051422,0.0051923505961894
2023-11-30 19:52:49.273547800,11.5895478515625,0.1311065107583999,0.0928363800048828,0.0288145542144775,0.004657844081521,-0.015347977168858,0.0091629717499017
2023-11-30 19:52:49.292149200,11.608149169921877,0.0804329514503479,0.0485782623291015,0.0328905582427978,-0.0106137758120894,-0.0144316805526614,0.0097738364711403
2023-11-30 19:52:49.310750700,11.626750732421876,-0.0059289038181304,-0.0199098587036132,0.041788101196289,-0.0246636662632226,-0.0168751403689384,0.0125227281823754
2023-11-30 19:52:49.329352400,11.6453525390625,-0.0144174396991729,0.0140285491943359,0.0250587463378906,-0.0179441533982753,-0.0220674909651279,0.013439024798572
2023-11-30 19:52:49.347954200,11.6639541015625,0.0281757116317749,0.036050796508789,0.0091209411621093,0.0037415467668324,-0.0211511924862861,0.0082466742023825
2023-11-30 19:52:49.366555600,11.6825556640625,0.013629138469696,0.038832664489746,-0.0080223083496093,0.0223729219287633,-0.0174860041588544,0.0021380267571657
2023-11-30 19:52:49.385157000,11.7011572265625,-0.0060788691043853,0.0362539291381835,-0.0257031917572021,0.028176138177514,-0.0122936535626649,-0.0018325943965464
2023-11-30 19:52:49.403758800,11.7197587890625,-0.0288991630077362,0.0024690628051757,-0.0166761875152587,0.0242055170238018,-0.0089338971301913,-0.0027488914784044
2023-11-30 19:52:49.422360300,11.7383603515625,-0.0408705472946167,-0.019331932067871,-0.0107276439666748,0.015653409063816,-0.0095447618514299,-0.0021380267571657
2023-11-30 19:52:49.440962000,11.756962158203123,-0.0325251668691635,-0.0431289672851562,0.0124783515930175,0.0092393299564719,-0.0159588418900966,-0.0003054323897231
2023-11-30 19:52:49.459563500,11.7755634765625,-0.0233730524778366,-0.015028953552246,-0.0043356418609619,0.0064904382452368,-0.0217620581388473,0.0021380267571657
2023-11-30 19:52:49.478165000,11.7941650390625,-0.0190545618534088,-0.0134124755859375,-0.0121665000915527,0.0077121676877141,-0.0202348958700895,0.0027488914784044
2023-11-30 19:52:49.496766700,11.8127666015625,-0.0232252031564712,-0.0283288955688476,-0.0300743579864501,0.0064904382452368,-0.0168751403689384,-0.0003054323897231
2023-11-30 19:52:49.515368200,11.8313681640625,-0.0196806341409683,-0.0146780014038085,-0.0315222740173339,0.0071013029664754,-0.0095447618514299,-0.0027488914784044
2023-11-30 19:52:49.533970000,11.849969970703125,-0.0160274058580398,-0.013960838317871,-0.0355536937713623,0.0104610593989491,0.0026725335046648,-0.0064140800386667
2023-11-30 19:52:49.552571400,11.8685712890625,-0.0194361805915832,-0.0038270950317382,-0.0424010753631591,0.0184023007750511,0.0182495843619108,-0.0058032153174281
2023-11-30 19:52:49.571173000,11.887173095703124,0.0151753425598144,0.0151243209838867,-0.0550241470336914,0.0263435430824756,0.0338266380131244,-0.0073303775861859
2023-11-30 19:52:49.589774600,11.905774658203123,0.0425396710634231,0.0161514282226562,-0.0472791194915771,0.025427246466279,0.0408515818417072,-0.0119118634611368
2023-11-30 19:52:49.608376000,11.9243759765625,0.0491054952144622,0.0185918807983398,-0.0584573745727539,0.0208457615226507,0.044516772031784,-0.0088575389236211
2023-11-30 19:52:49.626977800,11.942977783203125,0.0001879632472991,0.0197381973266601,-0.0209629535675048,0.0217620581388473,0.029245151206851,-0.0064140800386667
2023-11-30 19:52:49.645579300,11.961579345703123,-0.0636388957500457,-0.0086307525634765,0.047041893005371,0.0138208158314228,0.0127518018707633,-0.0015271619195118
2023-11-30 19:52:49.664181000,11.980180908203126,-0.0458662956953048,-0.1003503799438476,0.0110070705413818,-0.0017562361899763,0.0051159923896193,-0.0030543238390237
2023-11-30 19:52:49.682782500,11.998782470703125,-0.0384749323129653,-0.0579795837402343,-0.0048346519470214,-0.0029779658652842,0.011530072428286,-0.0051923505961894
2023-11-30 19:52:49.701384200,12.01738427734375,0.055151417851448,0.0768804550170898,0.0202326774597167,0.0242055170238018,0.0191658828407526,-0.0106901340186595
2023-11-30 19:52:49.719985700,12.035985595703124,0.1454717516899109,0.0409297943115234,0.061692476272583,0.0391717031598091,0.0155006935819983,-0.0119118634611368
2023-11-30 19:52:49.738587400,12.05458740234375,0.056818202137947,-0.0132837295532226,0.0201117992401123,0.0300087314099073,-0.0058795735239982,-0.0137444576248526
2023-11-30 19:52:49.757188900,12.07318896484375,-0.0579964071512222,-0.0317802429199218,0.0199682712554931,0.0174860041588544,-0.0190131664276123,-0.0186313763260841
2023-11-30 19:52:49.775790300,12.091790283203125,-0.0964294523000717,-0.0178632736206054,0.0735149383544921,0.0168751403689384,-0.0086284652352333,-0.0222965646535158
2023-11-30 19:52:49.794392000,12.11039208984375,-0.0779241174459457,0.0165767669677734,0.0872261524200439,0.0251218136399984,0.0002290742995683,-0.0259617529809474
2023-11-30 19:52:49.812993500,12.12899365234375,0.0042833536863327,0.0263900756835937,0.0882048606872558,0.0345902182161808,-0.0006872228696011,-0.0259617529809474
2023-11-30 19:52:49.831595300,12.14759521484375,0.0812499225139617,0.0173892974853515,0.038759708404541,0.0367282442748546,-0.0077121676877141,-0.0216856990009546
2023-11-30 19:52:49.850196700,12.16619677734375,0.060203731060028,-0.0205202102661132,-0.0022451877593994,0.0232892204076051,-0.0174860041588544,-0.0180205106735229
2023-11-30 19:52:49.868798500,12.184798583984374,-0.0384657382965087,-0.0477323532104492,-0.0412647724151611,0.0016035200096666,-0.0223729219287633,-0.0149661870673298
2023-11-30 19:52:49.887400000,12.20339990234375,-0.0721640288829803,-0.0360679626464843,-0.028480052947998,-0.0023671009112149,-0.0174860041588544,-0.0161879174411296
2023-11-30 19:52:49.906001700,12.222001708984376,-0.0396349728107452,-0.0365324020385742,0.0011718273162841,0.0055741411633789,-0.0150425452739,-0.0174096468836069
2023-11-30 19:52:49.924603100,12.24060302734375,-0.00495146214962,-0.0463266372680664,-0.0029661655426025,0.0043524117209017,-0.0217620581388473,-0.0198531057685613
2023-11-30 19:52:49.943204600,12.25920458984375,-0.044077455997467,-0.0668840408325195,-0.022313117980957,-0.0057268571108579,-0.0248163808137178,-0.0222965646535158
2023-11-30 19:52:49.961806300,12.277806396484374,-0.0466542392969131,-0.0472917556762695,-0.0087850093841552,-0.0106137758120894,-0.0214566253125667,-0.0253508891910314
2023-11-30 19:52:49.980407800,12.29640771484375,-0.0107377171516418,0.0124883651733398,-0.0257160663604736,-0.0118355052545666,-0.017791436985135,-0.0284052118659019
2023-11-30 19:52:49.999009300,12.31500927734375,0.0329468697309494,0.0494308471679687,-0.0227742195129394,-0.0109192077070474,-0.0162642747163772,-0.0244345907121896
2023-11-30 19:52:50.017611000,12.333611083984374,0.043554201722145,0.0454826354980468,-0.0102410316467285,-0.0093920463696122,-0.017791436985135,-0.0192422401160001
2023-11-30 19:52:50.036212700,12.352212646484375,0.0558501929044723,0.0179071426391601,-0.0201265811920166,-0.0145843969658017,-0.0220674909651279,-0.0152716198936104
2023-11-30 19:52:50.054814200,12.370814208984376,0.0353479385375976,-0.0284986495971679,-0.0023527145385742,-0.0243582334369421,-0.0242055170238018,-0.0128281600773334
2023-11-30 19:52:50.073415700,12.389415771484376,0.0087181329727172,-0.0466957092285156,0.0071344375610351,-0.0295505840331316,-0.0263435430824756,-0.0109955659136176
2023-11-30 19:52:50.092017400,12.408017333984375,0.0179074108600616,-0.0188169479370117,-0.0018098354339599,-0.0277179889380931,-0.0327576249837875,-0.0073303775861859
2023-11-30 19:52:50.110619000,12.426618896484374,0.0192529559135437,0.0018692016601562,-0.0404622554779052,-0.0197767466306686,-0.0309250298887491,-0.0036651887930929
2023-11-30 19:52:50.129220600,12.445220703125,0.0217741578817367,0.0194635391235351,-0.0337283611297607,-0.0142789641395211,-0.0184023007750511,-0.0091629717499017
2023-11-30 19:52:50.147822000,12.463822021484376,0.0086675882339477,0.028243064880371,-0.0049164295196533,-0.0106137758120894,-0.0040469793602824,-0.0122172953560948
2023-11-30 19:52:50.166423600,12.482423583984374,-0.0182730555534362,0.0569486618041992,0.0169563293457031,-0.0093920463696122,-0.0055741411633789,-0.0146607551723718
2023-11-30 19:52:50.185025300,12.501025390625,-0.0582137405872345,0.0671625137329101,0.0457475185394287,-0.0118355052545666,-0.0217620581388473,-0.013133592903614
2023-11-30 19:52:50.203627000,12.519626953125,-0.0435817092657089,0.0105371475219726,0.0406441688537597,-0.0200821794569492,-0.0306195970624685,-0.0042760535143315
2023-11-30 19:52:50.222228500,12.538228515625,-0.0510739386081695,-0.0792798995971679,0.00545334815979,-0.0264962594956159,-0.0284815710037946,0.0021380267571657
2023-11-30 19:52:50.240830000,12.556829833984375,-0.01835797727108,-0.0035257339477539,0.0118303298950195,-0.0029779658652842,-0.0116827888414263,0.0006108647794462
2023-11-30 19:52:50.259431700,12.575431640625,0.1033268868923187,0.0407190322875976,0.0436279773712158,0.0251218136399984,0.004810560029,-0.0061086476780474
2023-11-30 19:52:50.278033200,12.594033203125,0.0542596876621246,0.0244350433349609,-0.0216598510742187,0.0318413265049457,-0.0003817904798779,-0.0116064306348562
2023-11-30 19:52:50.296634600,12.612634521484376,-0.0660036653280258,-0.0361900329589843,-0.0938308238983154,0.0257326792925596,-0.0089338971301913,-0.0146607551723718
2023-11-30 19:52:50.315236400,12.631236328125,-0.1167285740375518,-0.077427864074707,-0.0896129608154296,0.0168751403689384,-0.0016035200096666,-0.0140498895198106
2023-11-30 19:52:50.333837800,12.649837890625,-0.0735755264759063,-0.0517101287841796,-0.0483253002166748,0.0199294630438089,0.0066431546583771,-0.0167987812310457
2023-11-30 19:52:50.352439600,12.668439453125,0.0368023514747619,-0.0056219100952148,-0.0216443538665771,0.0342847853899002,0.0130572346970438,-0.023518294095993
2023-11-30 19:52:50.371041000,12.687041015625,0.1428527534008026,0.045668601989746,-0.0189452171325683,0.0516944304108619,0.029245151206851,-0.0293215103447437
2023-11-30 19:52:50.389642500,12.705642578125,0.1802128553390503,0.0293941497802734,-0.0407612323760986,0.062995433807373,0.044516772031784,-0.0348192937672138
2023-11-30 19:52:50.408244200,12.724244140625,0.1388476938009262,0.0095529556274414,0.0292906761169433,0.0620791316032409,0.0585666596889495,-0.0406225062906742
2023-11-30 19:52:50.426846000,12.742845947265623,0.0724924653768539,0.0102052688598632,0.1125838756561279,0.0523052960634231,0.0603992566466331,-0.0394007787108421
2023-11-30 19:52:50.445447400,12.761447509765626,0.0123916044831275,0.037607192993164,0.1461036205291748,0.0358119495213031,0.0503199845552444,-0.0314595364034175
2023-11-30 19:52:50.464049000,12.780048828125,-0.0167226493358612,-0.0190591812133789,0.1108412742614746,0.0180968698114156,0.0390189886093139,-0.0299323741346597
2023-11-30 19:52:50.482650600,12.798650634765623,-0.0913579612970352,0.0581378936767578,0.1331579685211181,0.0095447618514299,0.0353537984192371,-0.0348192937672138
2023-11-30 19:52:50.501252000,12.817252197265624,-0.1523141413927078,0.181126594543457,0.1299405097961425,0.0184023007750511,0.0246636662632226,-0.0418442375957965
2023-11-30 19:52:50.519853800,12.835853759765625,-0.133930817246437,0.2092962265014648,0.0659246444702148,0.0446694865822792,0.0063377222977578,-0.0452039949595928
2023-11-30 19:52:50.538455300,12.854455322265624,-0.038409486413002,0.1179056167602539,-0.0665943622589111,0.0804050788283348,0.0008399390499107,-0.0424551032483577
2023-11-30 19:52:50.557056800,12.873056884765624,-0.0053364932537078,-0.0968770980834961,-0.217562198638916,0.1069776937365531,-0.0040469793602824,-0.0357355885207653
2023-11-30 19:52:50.575658500,12.891658447265623,-0.0963814184069633,-0.1833353042602539,-0.2865602970123291,0.1136972084641456,-0.0086284652352333,-0.0293215103447437
2023-11-30 19:52:50.594260000,12.910260009765626,-0.21445232629776,-0.2009401321411132,-0.2118275165557861,0.0990364551544189,-0.0083230324089527,-0.0250454563647508
2023-11-30 19:52:50.612861700,12.92886181640625,-0.2267764955759048,-0.1322660446166992,-0.0716085433959961,0.0764344558119773,-0.0071013029664754,-0.0222965646535158
2023-11-30 19:52:50.631463200,12.947463134765623,-0.1695686876773834,-0.0647134780883789,0.0479917526245117,0.0574976466596126,-0.0019089524867013,-0.0186313763260841
2023-11-30 19:52:50.650065000,12.96606494140625,-0.0743663236498832,-0.0009126663208007,0.1219723224639892,0.0428368933498859,-0.0003817904798779,-0.0140498895198106
2023-11-30 19:52:50.668666400,12.984666259765625,0.0215343087911605,0.018716812133789,0.1549644470214843,0.0269544087350368,-7.63580974307e-05,-0.0140498895198106
2023-11-30 19:52:50.687267800,13.003267822265624,0.1249783635139465,0.0618762969970703,0.1638708114624023,0.0190131664276123,-0.000992655288428,-0.0125227281823754
2023-11-30 19:52:50.705869600,13.02186962890625,0.1698734164237976,0.0742006301879882,0.0578973293304443,0.0205403286963701,-0.0089338971301913,-0.0070249447599053
2023-11-30 19:52:50.724471000,13.040470947265623,0.1347912400960922,0.1149463653564453,-0.01987886428833,0.0339793525636196,-0.0129045182839035,-0.0097738364711403
2023-11-30 19:52:50.743072800,13.05907275390625,0.0918903350830078,0.0322628021240234,-0.0474715232849121,0.0431423261761665,-0.0125990863889455,-0.0155770517885684
2023-11-30 19:52:50.761674200,13.07767431640625,0.0027312394231557,-0.0459308624267578,-0.0287261009216308,0.0391717031598091,-0.0132099511101841,-0.0152716198936104
2023-11-30 19:52:50.780276000,13.09627587890625,-0.072245180606842,0.0043907165527343,-0.0458226203918457,0.0443640537559986,-0.0055741411633789,-0.0119118634611368
2023-11-30 19:52:50.798877400,13.11487744140625,0.0068905558437108,0.0311613082885742,-0.0207068920135498,0.0568867810070514,-0.0064904382452368,-0.0128281600773334
2023-11-30 19:52:50.817479000,13.13347900390625,0.0643403604626655,-0.020613670349121,-0.0351426601409912,0.058719377964735,-0.028176138177514,-0.0119118634611368
2023-11-30 19:52:50.836080600,13.15208056640625,0.0210249684751033,-0.1012659072875976,-0.0861275196075439,0.0553596206009388,-0.0504727028310298,-0.0146607551723718
2023-11-30 19:52:50.854682000,13.17068212890625,-0.0331652164459228,-0.082223892211914,-0.0586915016174316,0.0532215945422649,-0.044058620929718,-0.0195476729422807
2023-11-30 19:52:50.873283800,13.189283935546875,-0.0796459019184112,-0.0308799743652343,0.0016736984252929,0.0504727028310298,-0.0312304627150297,-0.0256563201546669
2023-11-30 19:52:50.891885300,13.20788525390625,-0.0664217323064804,-0.0050992965698242,0.0263445377349853,0.0498618371784687,-0.0394771359860897,-0.0311541035771369
2023-11-30 19:52:50.910486800,13.22648681640625,-0.0357693657279014,0.0188484191894531,0.054173469543457,0.0513890013098716,-0.048334676772356,-0.0296269413083791
2023-11-30 19:52:50.929088500,13.245088623046875,-0.0035854950547218,0.0194950103759765,0.0352866649627685,0.0501672700047493,-0.0471129454672336,-0.0268780495971441
2023-11-30 19:52:50.947690000,13.26368994140625,0.0212707072496414,-0.0077733993530273,0.0504074096679687,0.040698867291212,-0.0385608375072479,-0.0271834824234247
2023-11-30 19:52:50.966291700,13.282291748046877,-0.0089003071188926,-0.026041030883789,0.0052838325500488,0.0361173786222934,-0.0300087314099073,-0.0265726186335086
2023-11-30 19:52:50.984893200,13.30089306640625,-0.0116328820586204,0.004037857055664,-0.045123815536499,0.0382554084062576,-0.0223729219287633,-0.0259617529809474
2023-11-30 19:52:51.003495000,13.319494873046876,-0.0151762142777442,0.0144128799438476,-0.0506443977355957,0.0385608375072479,-0.0260381121188402,-0.0232128612697124
2023-11-30 19:52:51.022096400,13.338096435546875,-0.0295233577489852,-0.0071468353271484,-0.0438876152038574,0.0333684869110584,-0.0348956510424613,-0.0195476729422807
2023-11-30 19:52:51.040697900,13.35669775390625,-0.0606580451130867,-0.032693862915039,-0.0331170558929443,0.0232892204076051,-0.036422811448574,-0.0161879174411296
2023-11-30 19:52:51.059299600,13.375299560546877,-0.0824446305632591,-0.0657625198364257,0.004399299621582,0.0107664912939071,-0.0303141642361879,-0.0140498895198106
2023-11-30 19:52:51.077901000,13.393901123046875,-0.0522672235965728,-0.0629386901855468,0.0203902721405029,0.0034361144062131,-0.0217620581388473,-0.013439024798572
2023-11-30 19:52:51.096502800,13.412502685546874,-0.004366785287857,-0.020853042602539,0.003394603729248,0.0040469793602824,-0.0107664912939071,-0.013439024798572
2023-11-30 19:52:51.115104300,13.431104248046877,0.0191369652748107,0.0119495391845703,-0.0281777381896972,0.0129045182839035,-0.0071013029664754,-0.0143553223460912
2023-11-30 19:52:51.133705700,13.449705810546876,0.0349601954221725,0.0109434127807617,-0.0552353858947753,0.0168751403689384,-0.0083230324089527,-0.0122172953560948
2023-11-30 19:52:51.152307500,13.468307373046876,0.0304550677537918,0.0018558502197265,-0.0356602668762207,0.0101556265726685,-0.0074067353270947,-0.0125227281823754
2023-11-30 19:52:51.170909200,13.4869091796875,0.0071166455745697,-0.0325651168823242,-0.0214247703552246,-0.0029779658652842,-0.000992655288428,-0.0137444576248526
2023-11-30 19:52:51.189510700,13.5055107421875,-0.0130825638771057,-0.0051155090332031,-0.0068998336791992,-0.0106137758120894,0.0078648841008543,-0.0109955659136176
2023-11-30 19:52:51.208112000,13.524112060546877,-0.0376485139131546,0.0389013290405273,-0.0436775684356689,-0.0127518018707633,0.0182495843619108,-0.0125227281823754
2023-11-30 19:52:51.226713900,13.5427138671875,-0.0451157987117767,0.0604963302612304,-0.0252838134765625,-0.0038942629471421,0.0347429327666759,-0.0106901340186595
2023-11-30 19:52:51.245315300,13.5613154296875,-0.0037803053855895,0.0622920989990234,-0.0988771915435791,0.0055741411633789,0.0243582334369421,-0.006719512399286
2023-11-30 19:52:51.263916800,13.579916748046877,-0.0323383808135986,0.0933122634887695,-0.0918333530426025,0.0144316805526614,0.0038942629471421,-0.0036651887930929
2023-11-30 19:52:51.282518500,13.5985185546875,-0.049938641488552,0.0468473434448242,-0.021860122680664,0.0199294630438089,-0.0077121676877141,-0.0094684036448597
2023-11-30 19:52:51.301120000,13.6171201171875,-0.0554328560829162,-0.016057014465332,0.0508694648742675,0.0138208158314228,-0.0019089524867013,-0.0076358099468052
2023-11-30 19:52:51.319721700,13.6357216796875,-0.0601515620946884,-0.0066642761230468,0.0431113243103027,0.0113773569464683,0.0063377222977578,-0.0064140800386667
2023-11-30 19:52:51.338323200,13.6543232421875,-0.0163752883672714,0.0556602478027343,0.0730621814727783,0.0266489759087562,0.0170278549194335,-0.0064140800386667
