time,seconds_elapsed,z,y,x,gyro_x,gyro_y,gyro_z
2023-11-30 19:48:11.990280000,0.053280029296875,0.0,0.0,0.0,-0.0958294123411178,-0.0122936535626649,0.0110719241201877
2023-11-30 19:48:12.008882000,0.0718818359375,0.0252339243888854,0.050908088684082,0.0078413486480712,-0.0888044685125351,-0.0742964297533035,0.0235946513712406
2023-11-30 19:48:12.027484200,0.090484130859375,0.0540622472763061,0.0210428237915039,-0.0593962669372558,-0.0469602309167385,-0.0736855641007423,0.0119882216677069
2023-11-30 19:48:12.046086400,0.10908642578125,-0.0118219852447509,-0.0289211273193359,-0.1658852100372314,-0.0124463699758052,-0.0434477590024471,-0.0148898288607597
2023-11-30 19:48:12.064688400,0.1276884765625,-0.0902754664421081,0.0192775726318359,-0.2007126808166504,-0.0329103395342826,0.0057268571108579,-0.0234419368207454
2023-11-30 19:48:12.083290400,0.146290283203125,-0.1122694611549377,0.0940561294555664,-0.2456865310668945,-0.0643698796629905,-0.0327576249837875,0.015347977168858
2023-11-30 19:48:12.101892600,0.164892578125,0.0706572532653808,0.0896530151367187,-0.0347876548767089,-0.0875827372074127,-0.046807512640953,0.0361173786222934
2023-11-30 19:48:12.120494600,0.18349462890625,0.1457226276397705,-0.0409250259399414,0.18123459815979,-0.0726165473461151,-0.0608574040234088,0.0330630578100681
2023-11-30 19:48:12.139096800,0.202096923828125,0.1416589021682739,-0.0720329284667968,0.0976901054382324,-0.0848338454961776,-0.083764836192131,0.0055741411633789
2023-11-30 19:48:12.157699000,0.220698974609375,-0.0682342052459716,0.0062828063964843,-0.1827187538146972,-0.2173915058374405,-0.1308014243841171,-0.0020616685505956
2023-11-30 19:48:12.176301000,0.239301025390625,-0.219720184803009,0.0971517562866211,-0.3555071353912353,-0.320933073759079,-0.1976911127567291,0.0016035200096666
2023-11-30 19:48:12.194903000,0.257903076171875,-0.0298857688903808,0.2253627777099609,-0.2247841358184814,-0.3508654534816742,-0.3626246154308319,0.1671478748321533
2023-11-30 19:48:12.213505300,0.27650537109375,0.1041327714920044,0.6839208602905273,-0.3724818229675293,-0.2454912811517715,-0.5687914490699768,0.2587775886058807
2023-11-30 19:48:12.232107500,0.295107421875,0.4739580750465393,0.4388465881347656,0.3268868923187256,-0.0790306329727172,-0.6885209679603577,0.2807687222957611
2023-11-30 19:48:12.250709500,0.31370947265625,0.3436692953109741,-0.0572166442871093,0.1954784393310547,0.0003817904798779,-0.58039790391922,0.2560287117958069
2023-11-30 19:48:12.269311500,0.3323115234375,-0.1526190042495727,-0.2407951354980468,-0.0607683658599853,-0.0423787422478199,-0.3158934414386749,0.1873064190149307
2023-11-30 19:48:12.287913700,0.350913818359375,-0.7070612907409668,-0.0586633682250976,-0.2864816188812256,-0.1031597927212715,-0.119500420987606,0.0938441008329391
2023-11-30 19:48:12.306516000,0.369515869140625,-0.7615480422973633,0.1063299179077148,-0.3562288284301758,-0.0545960403978824,-0.1127809062600135,0.0348956510424613
2023-11-30 19:48:12.325118000,0.388117919921875,-0.3297249376773834,-0.0108280181884765,-0.3350670337677002,0.064828023314476,-0.1983019858598709,0.0220674909651279
2023-11-30 19:48:12.343720200,0.40672021484375,-0.0094030499458312,-0.3599185943603515,-0.2259738445281982,0.1228601783514022,-0.3424660563468933,0.0101556265726685
2023-11-30 19:48:12.362322200,0.425322265625,-0.0563156008720397,-0.7985849380493164,-0.0695853233337402,0.0666606202721595,-0.5144245028495789,0.0132099511101841
2023-11-30 19:48:12.380924400,0.44392431640625,-0.3733859062194824,-0.9912261962890624,0.1379683017730713,-0.0582612268626689,-0.718758761882782,0.0205403286963701
2023-11-30 19:48:12.399526400,0.4625263671875,-0.5823115110397339,-0.863743782043457,0.4996571540832519,-0.1999818533658981,-0.8855248689651489,0.0272598415613174
2023-11-30 19:48:12.418128600,0.481128662109375,-0.6124093532562256,-0.6457176208496094,0.6676669120788574,-0.2977202236652374,-0.9530254006385804,0.0135153830051422
2023-11-30 19:48:12.436730600,0.499730712890625,-0.4332530200481415,-0.2487497329711914,0.7500460147857666,-0.3087157905101776,-0.8815542459487915,-0.0463493652641773
2023-11-30 19:48:12.455332600,0.51833251953125,-0.2354128360748291,0.3918771743774414,0.7932217121124268,-0.2293033599853515,-0.663475513458252,-0.1398116797208786
2023-11-30 19:48:12.473934800,0.536934814453125,-0.1102110743522644,1.0652446746826172,0.7337868213653564,-0.0744491443037986,-0.4334849119186401,-0.2378554791212082
2023-11-30 19:48:12.492537000,0.555537109375,-0.0663661956787109,1.258230209350586,0.4364724159240722,0.1335503160953521,-0.3262781500816345,-0.303523451089859
2023-11-30 19:48:12.511139000,0.57413916015625,-0.0847580432891845,0.8864479064941406,-0.1044538021087646,0.3412443399429321,-0.4734965562820434,-0.3349829614162445
2023-11-30 19:48:12.529741000,0.592740966796875,-0.2684441804885864,0.3960857391357422,-0.5006134510040283,0.4221839308738708,-0.5690969228744507,-0.289168119430542
2023-11-30 19:48:12.548343300,0.61134326171875,-1.2212780714035034,0.0895090103149414,-0.930661916732788,0.3323867917060852,-0.4887681901454925,-0.2305250912904739
2023-11-30 19:48:12.566945500,0.629945556640625,-2.0412886142730717,-0.3861522674560547,-0.5694830417633057,0.2105192691087722,-0.3333030939102173,-0.2008981555700302
2023-11-30 19:48:12.585547500,0.648547607421875,-1.9122990369796755,-0.925872802734375,-0.2422382831573486,0.1537088453769683,-0.1518762558698654,-0.1535561382770538
2023-11-30 19:48:12.604149800,0.667149658203125,-1.2426987886428833,-1.0443811416625977,-0.1980154514312744,0.1393535286188125,-0.1060613989830017,-0.1135444939136505
2023-11-30 19:48:12.622751700,0.685751708984375,-0.8064664006233215,-0.6409921646118164,-0.1761960983276367,0.1359937787055969,-0.1601229310035705,-0.0881936028599739
2023-11-30 19:48:12.641354000,0.70435400390625,-0.770937442779541,-0.0676822662353515,-0.0882103443145752,0.1216384470462799,-0.1692859083414077,-0.0545960403978824
2023-11-30 19:48:12.659956000,0.7229560546875,-1.0697712898254397,0.3803548812866211,0.0121107101440429,0.1332448869943618,-0.1805869042873382,-0.021609341725707
2023-11-30 19:48:12.678558200,0.74155810546875,-1.150638461112976,0.4848775863647461,0.1501331329345703,0.1628718227148056,-0.1952476501464843,0.0263435430824756
2023-11-30 19:48:12.697160200,0.76016015625,-1.1599483489990234,0.4608173370361328,0.2746286392211914,0.1702021956443786,-0.1628718227148056,0.0593302398920059
2023-11-30 19:48:12.715762400,0.778762451171875,-1.1983537673950195,0.3338336944580078,0.5202691555023193,0.1503490954637527,-0.1372154951095581,0.0828485339879989
2023-11-30 19:48:12.734364400,0.797364501953125,-1.1066230535507202,0.1414604187011718,0.6506870985031128,0.1390480995178222,-0.1915824711322784,0.1115591824054718
2023-11-30 19:48:12.752966700,0.815966552734375,-0.88644939661026,-0.1160202026367187,0.7545830011367798,0.1362992078065872,-0.3216966688632965,0.1680641770362854
2023-11-30 19:48:12.771568600,0.834568603515625,-0.8705569505691528,-0.4116907119750976,0.8280839920043945,0.1130863428115844,-0.4799106419086456,0.2529743909835815
2023-11-30 19:48:12.790171000,0.8531708984375,-1.0792828798294067,-0.6222438812255859,0.8327599763870239,0.0223729219287633,-0.5666534304618835,0.3152825832366943
2023-11-30 19:48:12.808772900,0.87177294921875,-1.4478684663772583,-0.6778135299682617,0.9320101737976074,-0.114460788667202,-0.6029998660087585,0.3226129710674286
2023-11-30 19:48:12.827375000,0.890375,-1.6505918502807615,-0.5228948593139648,0.9667024612426758,-0.2198349684476852,-0.5923097729682922,0.2984837889671325
2023-11-30 19:48:12.845977000,0.90897705078125,-1.61419677734375,-0.1713924407958984,0.8356516361236572,-0.2372446060180664,-0.464944452047348,0.2624427676200866
2023-11-30 19:48:12.864579300,0.927579345703125,-1.3850212097167969,0.3328571319580078,0.6323940753936768,-0.1669951528310775,-0.2679405510425567,0.2215148359537124
2023-11-30 19:48:12.883181300,0.946181396484375,-0.9567745923995972,0.7022008895874023,0.3296444416046142,-0.0619264170527458,-0.1399643868207931,0.1674533039331436
2023-11-30 19:48:12.901783600,0.964783447265625,-0.5243872404098511,0.7899723052978516,0.0554122924804687,0.0422260276973247,-0.1622609496116638,0.1362992078065872
2023-11-30 19:48:12.920385500,0.983385498046875,-0.2076249122619629,0.4970226287841797,-0.2476637363433838,0.1103374511003494,-0.2270126193761825,0.1595120728015899
2023-11-30 19:48:12.938987800,1.00198779296875,-0.3144353032112121,0.0103530883789062,-0.3290138244628906,0.1152243688702583,-0.2819904685020447,0.1934150606393814
2023-11-30 19:48:12.957589800,1.02058984375,-0.6987701058387756,-0.6945228576660156,-0.1307239532470703,0.0535270273685455,-0.2929860055446625,0.2169333547353744
2023-11-30 19:48:12.976192000,1.03919189453125,-1.182382106781006,-1.6176738739013672,-0.1898081302642822,-0.0646753087639808,-0.2468657344579696,0.2462548613548278
2023-11-30 19:48:12.994794000,1.0577939453125,-1.5057766437530518,-2.4515838623046875,-0.5044794082641602,-0.1850156635046005,-0.1372154951095581,0.2853502035140991
2023-11-30 19:48:13.013396200,1.076396240234375,-1.35517680644989,-2.7801055908203125,-0.9621188640594482,-0.2176969349384308,0.0011453714687377,0.2939023077487945
2023-11-30 19:48:13.031998200,1.094998291015625,-0.6358908414840698,-2.5438432693481445,-1.1343684196472168,-0.1727983802556991,-0.0333684869110584,0.2239582985639572
2023-11-30 19:48:13.050600400,1.113600341796875,-0.0993691086769104,-1.9508600234985352,-0.6763687133789062,-0.1059086844325065,-0.2050214856863021,0.168675035238266
2023-11-30 19:48:13.069202400,1.132202392578125,0.0099914073944091,-1.6348857879638672,-0.1376876831054687,-0.0836121141910553,-0.2071595191955566,0.1414915472269058
2023-11-30 19:48:13.087804700,1.1508046875,-0.1468645632266998,-1.913797378540039,0.2389709949493408,-0.1446985900402069,-0.0333684869110584,0.0972038581967353
2023-11-30 19:48:13.106407000,1.169406982421875,-0.1815355122089386,-2.317215919494629,0.4801132678985595,-0.274812787771225,0.1459203213453292,0.0266489759087562
2023-11-30 19:48:13.125009000,1.1880087890625,0.2200474739074707,-2.660734176635742,0.5727438926696777,-0.474260151386261,0.2503781914710998,-0.0854447111487388
2023-11-30 19:48:13.143611000,1.20661083984375,0.7397650480270386,-2.498237609863281,0.7333023548126221,-0.7134137153625488,0.2674824297428131,-0.1929569095373153
2023-11-30 19:48:13.162213000,1.225213134765625,1.0633331537246704,-1.3039007186889648,0.806490421295166,-0.9226348996162416,0.4385245442390442,-0.2213621288537979
2023-11-30 19:48:13.180815400,1.2438154296875,1.2573007345199585,0.0530948638916015,0.425687313079834,-1.0887900590896606,0.7445678114891052,-0.298331081867218
2023-11-30 19:48:13.199417300,1.262417236328125,1.595624327659607,1.1204700469970703,0.5432455539703369,-1.1226930618286133,1.0860412120819092,-0.3869064748287201
2023-11-30 19:48:13.218019300,1.281019287109375,2.377699613571167,1.576420783996582,0.2233569622039795,-0.973336696624756,1.279685378074646,-0.4345539212226867
2023-11-30 19:48:13.236621600,1.29962158203125,3.2513647079467773,1.5726804733276367,-0.2400882244110107,-0.6602684855461121,1.1822524070739746,-0.4107302129268646
2023-11-30 19:48:13.255223600,1.3182236328125,3.922786712646485,1.2588882446289062,-0.7596373558044434,-0.2653443813323974,0.6578249931335449,-0.3392590284347534
2023-11-30 19:48:13.273825800,1.33682568359375,4.073610305786133,0.9664382934570312,-1.0056066513061523,0.1448513120412826,-0.1008690446615219,-0.2595411837100982
2023-11-30 19:48:13.292427800,1.355427734375,3.62886381149292,0.8624305725097656,-0.8708312511444092,0.483881264925003,-0.5990293025970459,-0.1767689883708953
2023-11-30 19:48:13.311030000,1.374030029296875,2.5001261234283447,0.8140468597412109,-0.4452636241912842,0.674165666103363,-0.7966440320014954,-0.1550832986831665
2023-11-30 19:48:13.329632000,1.392632080078125,1.1912797689437866,0.9686222076416016,0.2589788436889648,0.7239511013031006,-0.7703768610954285,-0.1871536970138549
2023-11-30 19:48:13.348234200,1.411234130859375,0.0991070568561554,1.186624526977539,0.7867074012756348,0.6543125510215759,-0.5452731847763062,-0.2461021542549133
2023-11-30 19:48:13.366836200,1.429836181640625,-0.7712754607200623,1.7475852966308594,1.0467607975006104,0.3412443399429321,-0.2367864549160003,-0.3056614696979522
2023-11-30 19:48:13.385438500,1.4484384765625,-2.2119388580322266,2.3080759048461914,1.1531972885131836,-0.106824979186058,0.2338848561048507,-0.2879463732242584
2023-11-30 19:48:13.404040400,1.46704052734375,-2.661659240722656,2.5146379470825195,0.6832462549209595,-0.3245982825756073,0.5054142475128174,-0.2363283187150955
2023-11-30 19:48:13.422642700,1.485642578125,-1.1872475147247314,2.495364189147949,0.3157297372817993,-0.3468948304653168,0.5222130417823792,-0.2231947183609008
2023-11-30 19:48:13.441244700,1.50424462890625,0.0698723793029785,2.4439096450805664,0.0641987323760986,-0.2570977210998535,0.4537961781024933,-0.2054796367883682
2023-11-30 19:48:13.459847000,1.522846923828125,0.7636533975601196,2.4420080184936523,-0.2583892345428467,-0.0787251964211463,0.3252091407775879,-0.1352301836013794
2023-11-30 19:48:13.478449000,1.541448974609375,1.184370994567871,1.9961977005004885,-0.7113934755325317,0.1411861181259155,0.0851392820477485,-0.0973565727472305
2023-11-30 19:48:13.497051100,1.560051025390625,1.4718414545059204,1.2957534790039062,-0.7344998121261597,0.3287216126918793,-0.150654524564743,-0.1266780793666839
2023-11-30 19:48:13.515653000,1.578653076171875,1.3018497228622437,0.7306594848632812,-0.7840685844421387,0.4777726233005523,-0.2697731554508209,-0.0927750915288925
2023-11-30 19:48:13.534255400,1.59725537109375,0.7210119962692261,0.4594783782958984,-1.1065510511398315,0.5581013560295105,-0.3412443399429321,-0.0191658828407526
2023-11-30 19:48:13.552857300,1.615857421875,0.0016328990459442,0.3033466339111328,-1.1280962228775024,0.4273762702941894,-0.4285979866981506,0.0501672700047493
2023-11-30 19:48:13.571459600,1.63445947265625,-1.2452287673950195,0.1234197616577148,-0.9871982336044312,0.1338557451963424,-0.2551124095916748,0.1033125072717666
2023-11-30 19:48:13.590061600,1.6530615234375,-1.8946771621704104,-0.3836822509765625,-0.7235333919525146,-0.0771980360150337,-0.0086284652352333,0.14882193505764
2023-11-30 19:48:13.608663800,1.671663818359375,-1.2847440242767334,-0.640751838684082,-0.4880154132843017,-0.1578321903944015,-0.0174860041588544,0.150654524564743
2023-11-30 19:48:13.627265800,1.690265869140625,-0.3506601452827453,-0.985605239868164,-0.2268379926681518,-0.1697440445423126,-0.0504727028310298,0.1164461001753807
2023-11-30 19:48:13.645868000,1.708867919921875,0.1415572166442871,-1.5011796951293943,-0.1765984296798706,-0.1569158881902694,-0.0938441008329391,0.0807105079293251
2023-11-30 19:48:13.664470000,1.727469970703125,0.2937097549438476,-1.6694278717041016,-0.3740034103393554,-0.1266780793666839,-0.1152243688702583,0.0519998632371425
2023-11-30 19:48:13.683072300,1.746072265625,0.2679325342178345,-1.4078912734985352,-0.6641316413879395,-0.1052978187799453,-0.095982126891613,0.0764344558119773
2023-11-30 19:48:13.701674200,1.76467431640625,0.0705404728651046,-0.7871379852294922,-1.213603138923645,-0.1807396113872528,-0.1857792437076568,0.1136972084641456
2023-11-30 19:48:13.720276500,1.7832763671875,-0.4269297420978546,-0.5545063018798828,-1.4835057258605957,-0.3230711221694946,-0.245338574051857,0.1897498667240142
2023-11-30 19:48:13.738878500,1.80187841796875,-0.5808610320091248,-0.9888858795166016,-1.552986741065979,-0.4186714589595794,-0.3326922357082367,0.3128391206264496
2023-11-30 19:48:13.757480700,1.820480712890625,0.1325482577085495,-1.9534978866577148,-1.276892900466919,-0.4290561378002167,-0.5046506524085999,0.4282925724983215
2023-11-30 19:48:13.776082700,1.839082763671875,0.9011752605438232,-2.7448673248291016,-1.0068507194519043,-0.3988183438777923,-0.5006800293922424,0.4334849119186401
2023-11-30 19:48:13.794685000,1.857684814453125,1.3047780990600586,-3.0236024856567383,-0.5375268459320068,-0.3325395286083221,-0.4087449014186859,0.3931678533554077
2023-11-30 19:48:13.813287000,1.876286865234375,1.2058285474777222,-2.4977502822875977,-0.6180624961853027,-0.2103665620088577,-0.238313615322113,0.3785070776939392
2023-11-30 19:48:13.831889200,1.89488916015625,0.9983104467391968,-1.3394756317138672,-0.5687172412872314,-0.0909424945712089,-0.0938441008329391,0.3403280377388
2023-11-30 19:48:13.850491100,1.9134912109375,0.7498927116394043,-0.0787067413330078,0.2428767681121826,-0.0179441533982753,-0.0184023007750511,0.2777144014835357
2023-11-30 19:48:13.869093400,1.93209326171875,0.7840514183044434,0.6759738922119141,1.1889708042144775,0.0303141642361879,-0.048334676772356,0.2493091821670532
2023-11-30 19:48:13.887695400,1.9506953125,0.9425950050354004,1.2385625839233398,1.7962353229522705,0.104534238576889,-0.2056323587894439,0.2325104027986526
2023-11-30 19:48:13.906297600,1.969297607421875,1.0861066579818726,1.5350847244262695,2.4250001907348637,0.2450331300497055,-0.4738020002841949,0.1723402291536331
2023-11-30 19:48:13.924899600,1.987899658203125,1.2751489877700806,1.3452301025390625,3.2585039138793945,0.4411207437515259,-0.6790525317192078,0.1375209391117096
2023-11-30 19:48:13.943501600,2.00650146484375,1.341063380241394,0.7773847579956055,3.366894483566284,0.6130791902542114,-0.6854666471481323,0.0245109498500823
2023-11-30 19:48:13.962103800,2.025103759765625,1.1700505018234253,-0.1512746810913086,3.786247730255127,0.654007077217102,-0.4863247275352478,-0.0515417158603668
2023-11-30 19:48:13.980706000,2.0437060546875,0.5811729431152344,-0.7090435028076172,3.2467761039733887,0.3568213880062103,-0.3406334817409515,-0.0710893869400024
2023-11-30 19:48:13.999308000,2.06230810546875,-1.0057295560836792,-0.0914649963378906,2.1625962257385254,0.0480292439460754,-0.150654524564743,-0.0399352833628654
2023-11-30 19:48:14.017910000,2.080909912109375,-0.8308334350585938,0.7336578369140625,1.1664326190948486,-0.0973565727472305,0.0414624474942684,-0.0607046857476234
2023-11-30 19:48:14.036512300,2.09951220703125,-0.1495530903339386,1.510711669921875,0.6303331851959229,-0.0704785212874412,0.1660788655281067,-0.0414624474942684
2023-11-30 19:48:14.055114500,2.118114501953125,0.3443003296852112,2.0455093383789062,-0.2091095447540283,0.0180968698114156,0.1443931609392166,0.0226783547550439
2023-11-30 19:48:14.073716500,2.136716552734375,0.1631542444229126,2.2573494911193848,-0.9828917980194092,0.076129026710987,-0.0086284652352333,0.0742964297533035
2023-11-30 19:48:14.092318500,2.155318359375,-0.3221060633659363,2.043751716613769,-1.461730718612671,0.1115591824054718,-0.194025918841362,0.0434477590024471
2023-11-30 19:48:14.110920700,2.173920654296875,-0.5946564674377441,1.5148329734802246,-1.1783535480499268,0.1457676142454147,-0.1659261435270309,0.0165697075426578
2023-11-30 19:48:14.129523000,2.19252294921875,-0.8217995166778564,1.201674461364746,-0.4321920871734619,0.174172818660736,0.0295505840331316,0.0251218136399984
2023-11-30 19:48:14.148125000,2.211125,-0.947072684764862,1.3956289291381836,0.169248342514038,0.2102138400077819,0.1929569095373153,0.0538324601948261
2023-11-30 19:48:14.166727000,2.229726806640625,-0.784733772277832,1.4020776748657229,0.3757858276367187,0.2606101930141449,0.2112828493118286,0.0797942131757736
2023-11-30 19:48:14.185329200,2.2483291015625,-0.5025407075881958,1.076258659362793,0.3508434295654297,0.3207803666591644,0.1165988147258758,0.1060613989830017
2023-11-30 19:48:14.203931400,2.266931396484375,-0.3252017498016357,0.6395730972290039,0.2823681831359863,0.3510181605815887,-0.0214566253125667,0.1268308013677597
2023-11-30 19:48:14.222533400,2.285533447265625,-0.3904954791069031,0.0298128128051757,0.4063608646392822,0.3158934414386749,-0.14882193505764,0.1240819096565246
2023-11-30 19:48:14.241135400,2.30413525390625,-0.7078958749771118,-0.9128589630126952,0.6073751449584961,0.2105192691087722,-0.1845575273036956,0.1405752599239349
2023-11-30 19:48:14.259737600,2.322737548828125,-1.2457627058029177,-1.8829708099365237,0.5015718936920166,0.075212724506855,-0.1234710440039634,0.1778380125761032
2023-11-30 19:48:14.278339600,2.341339599609375,-1.6486616134643557,-2.6426210403442383,0.2880406379699707,-0.0240528006106615,-0.025427246466279,0.2096029818058014
2023-11-30 19:48:14.296941800,2.35994189453125,-1.7989284992218018,-2.571934700012207,-0.1058735847473144,-0.0747545808553695,0.1043815165758133,0.2386190593242645
2023-11-30 19:48:14.315543800,2.378543701171875,-1.7521483898162842,-2.0943470001220703,-0.4250237941741943,-0.1532506942749023,0.1547778695821762,0.2645808160305023
2023-11-30 19:48:14.334146000,2.39714599609375,-1.7966063022613523,-2.12680721282959,-0.6460111141204834,-0.2638172209262848,0.2351065874099731,0.3210858106613159
2023-11-30 19:48:14.352748000,2.415748046875,-1.405431032180786,-2.6015195846557617,-0.8851196765899658,-0.2851974964141845,0.4638754427433014,0.4267654120922088
2023-11-30 19:48:14.371350300,2.434350341796875,0.1117889285087585,-3.3726701736450195,-1.2411150932312012,-0.2558759748935699,0.5512291193008423,0.5376373529434204
2023-11-30 19:48:14.389952300,2.4529521484375,1.351825714111328,-4.012882232666016,-1.3969335556030271,-0.2888626754283905,0.2714530229568481,0.4545597434043884
2023-11-30 19:48:14.408554500,2.471554443359375,1.8763036727905276,-3.394073486328125,-0.100459337234497,-0.3435350656509399,-0.0458912178874015,0.3684278130531311
2023-11-30 19:48:14.427156500,2.490156494140625,2.0686733722686768,-2.7689218521118164,0.217768907546997,-0.3554469347000122,-0.1983019858598709,0.3116174042224884
2023-11-30 19:48:14.445758700,2.5087587890625,1.9698498249053955,-2.256898880004883,0.7921445369720459,-0.2882518172264099,-0.1543197184801101,0.2123518735170364
2023-11-30 19:48:14.464360700,2.527360595703125,1.765749454498291,-1.197737693786621,1.493786096572876,-0.218002364039421,0.0891098976135253,0.0318413265049457
2023-11-30 19:48:14.482963000,2.545962890625,1.462041258811951,-0.1177406311035156,1.8651859760284424,-0.2167806327342987,0.5429824590682983,-0.1608865112066269
2023-11-30 19:48:14.501565000,2.56456494140625,1.23822820186615,0.6997442245483398,1.5552984476089478,-0.2677878439426422,0.9394336938858032,-0.3365101218223572
2023-11-30 19:48:14.520167200,2.583167236328125,1.4136877059936523,1.1107778549194336,1.1148858070373535,-0.2903898358345032,1.130634307861328,-0.4476875364780426
2023-11-30 19:48:14.538769200,2.60176904296875,1.8140671253204343,1.3842172622680664,0.493349552154541,-0.2409097999334335,1.0075451135635376,-0.4415788650512695
2023-11-30 19:48:14.557371400,2.620371337890625,1.9772086143493648,1.846324443817139,-0.0693826675415039,-0.1272889524698257,0.6016254425048828,-0.335288405418396
2023-11-30 19:48:14.575973400,2.638973388671875,1.881164073944092,2.4379777908325195,-0.3252356052398681,0.0034361144062131,0.1031597927212715,-0.2012035846710205
2023-11-30 19:48:14.594575400,2.657575439453125,1.4872126579284668,3.0800647735595703,-0.1258652210235595,0.1329394429922104,-0.2471711635589599,-0.1214857324957847
2023-11-30 19:48:14.613177600,2.676177490234375,1.1454424858093262,3.3318734169006348,0.5483882427215576,0.2471711635589599,-0.4203513264656067,-0.093691386282444
2023-11-30 19:48:14.631779800,2.69477978515625,0.8914337754249573,3.1346893310546875,1.2235255241394043,0.2957349121570587,-0.5452731847763062,-0.1019380614161491
2023-11-30 19:48:14.650381800,2.7133818359375,0.6786245107650757,2.3411550521850586,1.7588707208633425,0.1979965418577194,-0.5962803959846497,-0.1239291951060295
2023-11-30 19:48:14.668983800,2.73198388671875,0.2335057705640792,1.4948368072509766,1.8655576705932615,-0.0359646640717983,-0.6372083425521851,-0.1379790753126144
2023-11-30 19:48:14.687586000,2.7505859375,-0.2760674953460693,0.912846565246582,1.7681409120559692,-0.256792277097702,-0.6482039093971252,-0.1196531355381012
2023-11-30 19:48:14.706188000,2.76918798828125,-0.3966736495494842,0.4482078552246094,1.2501299381256104,-0.3630827665328979,-0.5269472599029541,-0.0891098976135253
2023-11-30 19:48:14.724790300,2.787790283203125,-0.1539070457220077,-0.0214014053344726,0.2913577556610107,-0.3728565871715545,-0.2764926850795746,-0.0891098976135253
2023-11-30 19:48:14.743392300,2.806392333984375,0.0535457581281662,-0.3600664138793945,-0.7069976329803467,-0.3047451674938202,-0.0712421014904975,-0.151112675666809
2023-11-30 19:48:14.761994500,2.824994384765625,0.2120408415794372,-0.4183969497680664,-1.575920581817627,-0.1422551423311233,0.0570394992828369,-0.2173915058374405
2023-11-30 19:48:14.780596500,2.843596435546875,0.3341965675354004,-0.0296449661254882,-2.3648252487182617,0.0651334598660469,0.0707839578390121,-0.2494619041681289
2023-11-30 19:48:14.799198700,2.86219873046875,0.2675943970680237,0.5367851257324219,-2.80750060081482,0.2141844630241394,0.0133626665920019,-0.2164752036333084
2023-11-30 19:48:14.817800700,2.88080078125,-0.1284905970096588,1.269866943359375,-2.913830041885376,0.2004400044679641,0.0631481483578682,-0.0891098976135253
2023-11-30 19:48:14.836403000,2.89940283203125,-0.7195903062820435,1.4843111038208008,-2.5861761569976807,0.0306195970624685,0.0790306329727172,0.0098501946777105
2023-11-30 19:48:14.855005000,2.9180048828125,-0.88767409324646,0.8939313888549805,-1.7062857151031494,-0.1080467104911804,-0.0813213735818862,0.0944549664855003
2023-11-30 19:48:14.873607000,2.93660693359375,-0.1866039633750915,0.0309820175170898,-0.9288415908813475,-0.1514181047677993,-0.245338574051857,0.1118646115064621
2023-11-30 19:48:14.892209200,2.955209228515625,0.4043789505958557,-0.756403923034668,-0.0903413295745849,-0.1895971596240997,-0.1405752599239349,0.1341611742973327
2023-11-30 19:48:14.910811400,2.973811279296875,0.1529749929904937,-1.3606996536254885,0.0490128993988037,-0.2491564750671386,0.0686459317803382,0.1537088453769683
2023-11-30 19:48:14.929413400,2.992413330078125,-0.1588331013917923,-1.3874187469482422,-0.2956752777099609,-0.3300960659980774,0.2464075833559036,0.1729510873556137
2023-11-30 19:48:14.948015400,3.011015380859375,-0.4055712223052978,-0.6612119674682617,-1.0302319526672363,-0.4174497127532959,0.2968039214611053,0.279852420091629
2023-11-30 19:48:14.966617600,3.02961767578125,-0.4553867280483246,-0.0030603408813476,-1.7212867736816406,-0.5075522661209106,0.2977202236652374,0.4634172916412353
2023-11-30 19:48:14.985219600,3.048219482421875,-0.1986915171146392,0.0111856460571289,-2.092003107070923,-0.5249619483947754,0.1111010313034057,0.6631700992584229
2023-11-30 19:48:15.003821800,3.06682177734375,1.1239275932312012,-1.8428888320922847,-1.8737289905548096,-0.4360810816287994,-0.3507127463817596,0.7349466681480408
2023-11-30 19:48:15.022423800,3.085423828125,2.6194005012512207,-3.340752601623535,-0.6695950031280518,-0.3924042582511902,-0.6503419280052185,0.6521745324134827
2023-11-30 19:48:15.041026000,3.104026123046875,2.66422176361084,-2.952877998352051,0.6283736228942871,-0.33162322640419,-0.7541889548301697,0.4841867089271545
2023-11-30 19:48:15.059628000,3.1226279296875,2.379140853881836,-1.619354248046875,1.6074886322021484,-0.1227074638009071,-0.877278208732605,0.3366628587245941
2023-11-30 19:48:15.078230300,3.141230224609375,2.3202242851257324,-1.3718137741088867,2.129931926727295,0.2734383344650268,-1.078558087348938,0.208381250500679
2023-11-30 19:48:15.096832300,3.159832275390625,2.237268686294556,-1.5688867568969729,2.608944892883301,0.7471640110015869,-1.2358558177947998,0.081015944480896
2023-11-30 19:48:15.115434500,3.1784345703125,1.559149980545044,-1.8770341873168943,3.295909881591797,1.0278563499450684,-1.0080032348632812,-0.1025489270687103
2023-11-30 19:48:15.134036500,3.197036376953125,0.0607123672962188,-2.0560741424560547,3.929411888122559,0.9337831735610962,-0.3708712756633758,-0.2024253159761428
2023-11-30 19:48:15.152638500,3.215638427734375,-1.5747637748718262,-1.4959020614624023,3.636345386505127,0.2746600806713104,0.2085339576005935,-0.2916115820407867
2023-11-30 19:48:15.171240700,3.23424072265625,-3.798028707504273,-0.7332534790039062,3.4456281661987305,-0.3157407343387604,0.5619192123413086,-0.1669951528310775
2023-11-30 19:48:15.189843000,3.252843017578125,-2.190800905227661,0.3589115142822265,1.2928285598754885,-0.6355284452438354,0.8203150629997253,-0.0405461490154266
2023-11-30 19:48:15.208445000,3.27144482421875,-0.6362842321395874,1.4045166969299316,0.3983943462371826,-0.7097485065460205,0.9153045415878296,-0.044516772031784
2023-11-30 19:48:15.227047000,3.290046875,0.5657138228416443,2.311452865600586,0.0609602928161621,-0.6092612743377686,0.8948405385017395,-0.0469602309167385
2023-11-30 19:48:15.245649200,3.308649169921875,1.1273078918457031,3.0747642517089844,-0.7541937828063965,-0.3899607956409454,0.6871465444564819,0.0003817904798779
2023-11-30 19:48:15.264251100,3.327251220703125,1.3075522184371948,3.764126777648926,-1.3900156021118164,-0.0881936028599739,0.2714530229568481,0.0639117285609245
2023-11-30 19:48:15.282853400,3.345853271484375,1.2771962881088257,4.282444477081299,-1.532625675201416,0.2468657344579696,-0.1378263682126999,0.1164461001753807
2023-11-30 19:48:15.301455400,3.364455322265625,1.019123911857605,4.299598693847656,-1.239330530166626,0.5935314893722534,-0.3247509896755218,0.1796706020832061
2023-11-30 19:48:15.320057600,3.3830576171875,0.9238564372062684,3.2986984252929688,-0.5216813087463379,0.9007964730262756,-0.49823659658432,0.1075885593891143
2023-11-30 19:48:15.338659600,3.40165966796875,0.9625694751739502,1.7769546508789062,0.6601567268371582,1.145447850227356,-0.6497310400009155,-0.0442113392055034
2023-11-30 19:48:15.357261600,3.420261474609375,0.7541629672050476,0.3359718322753906,1.4679906368255615,1.101160168647766,-0.6057487726211548,-0.1938732117414474
2023-11-30 19:48:15.375863800,3.43886376953125,-1.0692707300186155,-0.8032798767089844,2.011444330215454,0.7102066874504089,-0.3116174042224884,-0.1578321903944015
2023-11-30 19:48:15.394466000,3.457466064453125,-2.9679527282714844,-1.501230239868164,1.5459139347076416,0.2771035432815552,0.0573449321091175,-0.0237473677843809
2023-11-30 19:48:15.413068000,3.476068115234375,-3.0919971466064453,-2.160593032836914,1.304660677909851,0.0187077336013317,0.1740200966596603,0.0410043001174926
2023-11-30 19:48:15.431670000,3.494669921875,-1.857229471206665,-2.520854949951172,0.9979746341705322,-0.0826958194375038,0.0805577933788299,0.0492509715259075
2023-11-30 19:48:15.450272300,3.513272216796875,-0.9618054628372192,-2.078756332397461,0.2899079322814941,-0.1132390573620796,0.0258853957056999,0.1442404389381408
2023-11-30 19:48:15.468874200,3.531874267578125,-0.8280298709869385,-1.4558048248291016,-0.8543481826782227,-0.1773798614740371,-0.0687986463308334,0.2456440031528473
2023-11-30 19:48:15.487476500,3.5504765625,-1.1888830661773682,-1.378437042236328,-1.484886646270752,-0.2974147796630859,-0.1027016416192054,0.2468657344579696
2023-11-30 19:48:15.506078500,3.569078369140625,-1.700606346130371,-1.7407312393188477,-1.4535760879516602,-0.367969661951065,-0.0229837875813245,0.1964693814516067
2023-11-30 19:48:15.524680700,3.5876806640625,-1.8071985244750977,-1.9502019882202148,-1.1792120933532717,-0.3581958413124084,0.0823903903365135,0.1530979871749878
2023-11-30 19:48:15.543282700,3.60628271484375,-1.690146803855896,-1.7464542388916016,-0.7144463062286377,-0.3407861888408661,0.2222784161567688,0.171423926949501
2023-11-30 19:48:15.561885000,3.624885009765625,-1.5564836263656616,-1.2228450775146484,-0.7701408863067627,-0.3499491512775421,0.5069414377212524,0.2587775886058807
2023-11-30 19:48:15.580487000,3.64348681640625,-0.9604473114013672,-0.7821750640869141,-1.177225112915039,-0.2812268733978271,0.9302706718444824,0.3891972303390503
2023-11-30 19:48:15.599089200,3.662089111328125,0.7379055023193359,-1.1093816757202148,-1.790310621261597,-0.1407279670238495,0.954094409942627,0.5138136148452759
2023-11-30 19:48:15.617691100,3.680691162109375,2.194319486618042,-1.562657356262207,-1.7309808731079102,-0.0539851747453212,0.5145772099494934,0.474718302488327
2023-11-30 19:48:15.636293400,3.69929345703125,2.9649972915649414,-2.5016345977783203,-0.4193687438964844,-0.0692567974328994,-0.086513727903366,0.2838230431079864
2023-11-30 19:48:15.654895400,3.717895263671875,2.781904935836792,-2.117412567138672,1.0915093421936035,-0.1007163301110267,-0.3626246154308319,0.2285397797822952
2023-11-30 19:48:15.673497300,3.736497314453125,2.00757098197937,-1.1348648071289062,1.6862297058105469,-0.1074358448386192,-0.3171151876449585,0.1631772518157959
2023-11-30 19:48:15.692099600,3.755099609375,1.518149495124817,-0.7962722778320312,2.633666753768921,-0.0552069060504436,-0.0697149410843849,0.0312304627150297
2023-11-30 19:48:15.710701600,3.77370166015625,1.4283374547958374,-0.792231559753418,2.965599536895752,-0.008475748822093,0.2506836354732513,-0.1358410567045211
2023-11-30 19:48:15.729303800,3.7923037109375,1.3602231740951538,-0.6792678833007812,2.264896869659424,-0.0271071251481771,0.5765799880027771,-0.2812268733978271
2023-11-30 19:48:15.747905800,3.81090576171875,1.1524114608764648,-0.2477340698242187,1.0480725765228271,-0.0484873913228511,0.7592285871505737,-0.3594175577163696
2023-11-30 19:48:15.766508000,3.829508056640625,1.0621702671051023,0.3688917160034179,-0.1509144306182861,-0.0090866135433316,0.7448732256889343,-0.4000400602817535
2023-11-30 19:48:15.785110000,3.848110107421875,1.0106593370437622,0.9576988220214844,-0.8949508666992188,0.0724638327956199,0.5539780259132385,-0.4189768731594085
2023-11-30 19:48:15.803712300,3.866712158203125,0.6783989667892456,1.6687488555908203,-1.1799168586730957,0.1799760311841964,0.3627773225307464,-0.428139865398407
2023-11-30 19:48:15.822314200,3.885314208984375,0.3612272143363952,2.338434219360352,-0.8486583232879639,0.3137554228305816,0.367969661951065,-0.427528977394104
2023-11-30 19:48:15.840916500,3.90391650390625,0.3963731229305267,2.813711166381836,-0.0700268745422363,0.4432587623596191,0.4498255550861358,-0.460821121931076
2023-11-30 19:48:15.859518500,3.9225185546875,0.579773485660553,3.0941829681396484,0.8929698467254639,0.5122864842414856,0.3811032772064209,-0.4479929506778717
2023-11-30 19:48:15.878120400,3.941120361328125,0.5285439491271973,2.9268150329589844,1.275129795074463,0.4744128584861755,0.2396880686283111,-0.3826304376125335
2023-11-30 19:48:15.896722700,3.95972265625,0.4699037671089172,2.215697765350342,1.5505084991455078,0.3143662810325622,0.1184314116835594,-0.3242928385734558
2023-11-30 19:48:15.915324700,3.97832470703125,0.4240857660770416,1.283527374267578,1.6369699239730835,0.0862082913517952,0.0286342874169349,-0.2369391769170761
2023-11-30 19:48:15.933927000,3.996927001953125,0.507925271987915,0.4079227447509765,1.2400498390197754,-0.1508072465658188,-0.0669660493731498,-0.1395062506198883
2023-11-30 19:48:15.952529000,4.01552880859375,0.5539523363113403,-0.1034231185913086,0.5454761981964111,-0.3142135739326477,-0.1683696061372757,-0.0530688762664794
2023-11-30 19:48:15.971131100,4.034131103515625,0.6313661336898804,-0.0967092514038086,-0.2873561382293701,-0.3493382930755615,-0.2636645138263702,0.0275652725249528
2023-11-30 19:48:15.989733000,4.052733154296875,0.5675128698348999,0.3152580261230469,-0.9879477024078368,-0.2830594778060913,-0.3754527568817138,0.0565813519060611
2023-11-30 19:48:16.008335400,4.07133544921875,0.3352625072002411,0.8546695709228516,-1.338815212249756,-0.170965775847435,-0.4121046662330627,0.0318413265049457
2023-11-30 19:48:16.026937300,4.089937255859375,0.0159121342003345,1.3811359405517578,-1.4828038215637207,-0.0442113392055034,-0.308563083410263,0.0067958706058561
2023-11-30 19:48:16.045539300,4.108539306640625,-0.2277704328298568,1.6954402923583984,-1.45953369140625,0.0831539705395698,-0.128052532672882,0.0584139451384544
2023-11-30 19:48:16.064141600,4.1271416015625,-0.3131736516952514,1.2587947845458984,-1.400825023651123,0.1457676142454147,-0.0529161617159843,0.0828485339879989
2023-11-30 19:48:16.082743600,4.14574365234375,-0.2083909213542938,0.2036905288696289,-1.0070230960845947,0.147905632853508,-0.062995433807373,0.0840702652931213
2023-11-30 19:48:16.101345800,4.164345703125,0.0055218860507011,-0.8809080123901367,-0.7097246646881104,0.0880408883094787,-0.0975092872977256,0.0816268026828765
2023-11-30 19:48:16.119947800,4.18294775390625,0.1235864758491516,-1.6905584335327148,-0.4980087280273437,-0.0955239832401275,-0.0917060747742652,0.0840702652931213
2023-11-30 19:48:16.138550000,4.201550048828125,-0.3059223294258117,-1.8567237854003904,-0.5639417171478271,-0.3386481702327728,-0.0568867810070514,0.1350774765014648
2023-11-30 19:48:16.157152000,4.220152099609375,-0.907949447631836,-1.1608963012695312,-1.2144768238067627,-0.5038870573043823,-0.0052687088027596,0.2474765926599502
2023-11-30 19:48:16.175754000,4.23875390625,-0.7060151100158691,-1.3714962005615234,-1.877624988555908,-0.5304597020149231,-0.1054505333304405,0.3678169548511505
2023-11-30 19:48:16.194356200,4.257356201171875,0.4312773942947387,-2.9911680221557617,-2.0139172077178955,-0.4021781086921692,-0.2282343506813049,0.4826595485210418
2023-11-30 19:48:16.212958500,4.27595849609375,1.5989723205566406,-3.6764450073242183,-1.716231107711792,-0.2286925017833709,-0.1805869042873382,0.418824166059494
2023-11-30 19:48:16.231560400,4.294560546875,2.284444093704224,-3.365109443664551,-0.6895666122436523,-0.0946076810359954,-0.1427132785320282,0.2700785994529724
2023-11-30 19:48:16.250162400,4.313162353515625,2.143173694610596,-2.255620002746582,0.1095390319824218,0.0373391099274158,-0.128052532672882,0.1747836917638778
2023-11-30 19:48:16.268764700,4.3317646484375,2.0135610103607178,-1.6346073150634766,0.7576119899749756,0.2135736048221588,-0.298789232969284,0.1485165059566497
2023-11-30 19:48:16.287366700,4.35036669921875,1.9223592281341555,-1.4214105606079102,1.426140069961548,0.4194350242614746,-0.6533962488174438,0.0755181610584259
2023-11-30 19:48:16.305969000,4.368968994140625,1.506473183631897,-1.3703899383544922,2.624966859817505,0.598723828792572,-0.9377537965774536,-0.1031597927212715
2023-11-30 19:48:16.324571000,4.38757080078125,0.8318953514099121,-1.5757694244384766,3.8325674533844,0.3757582008838653,-0.6588940024375916,-0.3013854026794433
2023-11-30 19:48:16.343173000,4.406173095703125,-1.9337716102600095,-1.4482622146606443,4.381562232971191,-0.0701730921864509,-0.0907897800207138,-0.2280816435813903
2023-11-30 19:48:16.361775000,4.424775146484375,-2.7647573947906494,-0.4127750396728515,3.2253124713897705,-0.3423133492469787,0.1825722157955169,-0.0442113392055034
2023-11-30 19:48:16.380377000,4.443377197265625,-1.2661187648773191,0.7577571868896484,1.9772385358810425,-0.4195877313613891,0.3013854026794433,-0.0335212051868438
2023-11-30 19:48:16.398979300,4.461979248046875,0.3092531561851501,1.6448640823364258,1.571124792098999,-0.3374264240264892,0.368580549955368,-0.1364519149065017
2023-11-30 19:48:16.417581300,4.480581298828125,1.2937272787094116,2.53193473815918,1.0512313842773438,-0.1254563480615615,0.307494044303894,-0.170965775847435
2023-11-30 19:48:16.436183600,4.49918359375,1.648556351661682,3.225545883178711,0.1420094966888427,0.1246927753090858,0.1184314116835594,-0.1150716543197631
2023-11-30 19:48:16.454785500,4.51778564453125,1.4485390186309814,3.674901008605957,-0.6050903797149658,0.3418551981449127,-0.1222493126988411,-0.0469602309167385
2023-11-30 19:48:16.473387800,4.5363876953125,1.0645877122879028,3.6871395111083984,-0.9249253273010254,0.4909062087535858,-0.3562105298042297,-0.0191658828407526
2023-11-30 19:48:16.491989800,4.55498974609375,0.6344258785247803,3.1419639587402344,-0.6032333374023438,0.5315287113189697,-0.4237110912799835,-0.0561232008039951
2023-11-30 19:48:16.510592000,4.573592041015625,-0.0426182150840759,2.1869540214538574,0.5446836948394775,0.49823659658432,-0.3904189467430115,-0.1395062506198883
2023-11-30 19:48:16.529194000,4.592194091796875,-0.6985141038894653,1.222454071044922,1.503050684928894,0.3901135325431824,-0.2780198454856872,-0.1712712198495865
2023-11-30 19:48:16.547796000,4.6107958984375,-1.5277507305145264,0.286722183227539,1.748693585395813,0.2557232677936554,-0.1637881249189376,-0.1196531355381012
2023-11-30 19:48:16.566398200,4.629398193359375,-1.9698781967163088,-0.7741680145263672,1.3005499839782717,0.1491273641586303,-0.1659261435270309,7.63580974307e-05
2023-11-30 19:48:16.585000200,4.648000244140625,-1.7223267555236816,-1.8584232330322263,0.3415453433990478,0.017791436985135,-0.171423926949501,0.0901789143681526
2023-11-30 19:48:16.603602400,4.6666025390625,-1.3812894821166992,-1.9177465438842771,-0.3284633159637451,-0.1602756530046463,-0.235564723610878,0.1231656074523925
2023-11-30 19:48:16.622204400,4.685204345703125,-1.308027744293213,-0.7592840194702148,-0.3715138435363769,-0.2546542584896087,-0.2874882221221924,0.1815031915903091
2023-11-30 19:48:16.640806700,4.703806640625,-0.8922981023788452,0.1394081115722656,-0.4427781105041504,-0.2259436100721359,-0.2679405510425567,0.2041051983833313
2023-11-30 19:48:16.659408600,4.72240869140625,-0.4344750344753265,-0.0603742599487304,-0.3957207202911377,-0.1025489270687103,-0.1824194937944412,0.1934150606393814
2023-11-30 19:48:16.678011000,4.741010986328125,-0.3627937138080597,-0.902231216430664,-0.6238934993743896,-0.001450803829357,-0.0339793525636196,0.1622609496116638
2023-11-30 19:48:16.696612900,4.75961279296875,-0.8958752155303955,-1.553605079650879,-1.016679286956787,-0.0295505840331316,0.1037706509232521,0.1277471035718917
2023-11-30 19:48:16.715214800,4.77821484375,-1.5962297916412354,-2.1151905059814453,-1.2758126258850098,-0.1544724255800247,0.1682168841361999,0.0947603955864906
2023-11-30 19:48:16.733817000,4.796817138671875,-1.9716637134552,-2.051076889038086,-1.0942106246948242,-0.2934441566467285,0.1813504844903946,0.095982126891613
2023-11-30 19:48:16.752419000,4.815419189453125,-2.155632257461548,-1.660627365112305,-0.8152856826782227,-0.3636936247348785,0.3563632369041443,0.14882193505764
2023-11-30 19:48:16.771021300,4.834021240234375,-1.5099695920944214,-1.5974674224853516,-1.058619260787964,-0.2943604588508606,0.6605738997459412,0.279852420091629
2023-11-30 19:48:16.789623300,4.852623291015625,0.2563044428825378,-2.1737937927246094,-2.113494873046875,-0.1700494885444641,0.8163444399833679,0.3617083132266998
2023-11-30 19:48:16.808225500,4.8712255859375,1.841149091720581,-2.179795265197754,-1.980977296829224,-0.0710893869400024,0.6804270148277283,0.2554178237915039
2023-11-30 19:48:16.826827500,4.88982763671875,2.901510238647461,-2.190614700317383,-0.7157840728759766,-0.0390189886093139,0.373162031173706,0.1372154951095581
2023-11-30 19:48:16.845429500,4.908429443359375,2.789175271987915,-1.2362556457519531,0.2555098533630371,-0.0374918244779109,0.0753654390573501,0.0639117285609245
2023-11-30 19:48:16.864031700,4.92703173828125,2.161548137664795,0.0121526718139648,1.1365220546722412,0.0125990863889455,0.0564286336302757,-0.0240528006106615
2023-11-30 19:48:16.882633700,4.9456337890625,1.883718490600586,0.2670202255249023,1.718157410621643,0.1240819096565246,0.3282634615898132,-0.1278998106718063
2023-11-30 19:48:16.901236000,4.964236083984375,1.73803448677063,-0.0343084335327148,1.7269433736801147,0.2001345753669738,0.6987529397010803,-0.2283870726823806
2023-11-30 19:48:16.919838000,4.982837890625,1.3204355239868164,-0.3357210159301758,1.0175604820251465,0.1527925580739975,0.7882446646690369,-0.2680932879447937
2023-11-30 19:48:16.938440200,5.001440185546875,0.5334680676460266,-0.2684268951416015,0.249277114868164,0.0458912178874015,0.5723039507865906,-0.2424369603395462
2023-11-30 19:48:16.957042200,5.020042236328125,0.1580375730991363,0.0835981369018554,0.0623810291290283,-0.0289397183805704,0.2772562503814697,-0.2021198868751526
2023-11-30 19:48:16.975644400,5.03864453125,0.31849005818367,0.543269157409668,0.5072283744812012,-0.0451276339590549,0.0353537984192371,-0.2070067971944809
2023-11-30 19:48:16.994246400,5.057246337890625,0.580119252204895,1.0558671951293943,1.300689458847046,-0.0304668806493282,-0.0235946513712406,-0.2760345339775085
2023-11-30 19:48:17.012848400,5.075848388671875,0.6594803333282471,1.750288963317871,1.9886407852172847,-0.0264962594956159,0.0741437152028083,-0.308104932308197
2023-11-30 19:48:17.031450600,5.09445068359375,0.3782249987125397,2.48549222946167,1.9613693952560425,-0.03138317912817,0.2091448307037353,-0.3023017048835754
2023-11-30 19:48:17.050052600,5.113052490234375,0.2574511468410492,2.8182058334350586,1.6572463512420654,-0.0261908266693353,0.2763399481773376,-0.3139081299304962
2023-11-30 19:48:17.068654600,5.131654541015625,0.390862375497818,2.7061243057250977,1.329169750213623,-0.0072540193796157,0.226859912276268,-0.3151298761367798
2023-11-30 19:48:17.087256800,5.1502568359375,0.6416929364204407,2.4945802688598637,0.9130978584289552,0.0104610593989491,0.1618028134107589,-0.2677878439426422
2023-11-30 19:48:17.105858800,5.16885888671875,0.7652009129524231,2.179354667663574,0.2275352478027343,0.0348956510424613,0.062537282705307,-0.1935677826404571
2023-11-30 19:48:17.124461000,5.1874609375,0.9022097587585448,1.7842049598693848,-0.3612034320831299,0.0892626196146011,-0.0877354517579078,-0.1126281917095184
2023-11-30 19:48:17.143063000,5.20606298828125,1.0814656019210815,1.041015625,-0.8783702850341797,0.1274416595697403,-0.2596938908100128,-0.0228310711681842
2023-11-30 19:48:17.161665300,5.224665283203125,0.8873181343078613,0.2874593734741211,-1.4513938426971436,0.1094211563467979,-0.4340957701206207,0.0315358936786651
2023-11-30 19:48:17.180267300,5.243267333984375,0.3386596441268921,-0.1668348312377929,-1.7000272274017334,0.0770453214645385,-0.49273881316185,0.0385608375072479
2023-11-30 19:48:17.198869500,5.261869384765625,-0.2520492076873779,-0.3169975280761719,-1.553309679031372,0.0724638327956199,-0.3870591819286346,0.0419205948710441
2023-11-30 19:48:17.217471500,5.280471435546875,-0.6968804001808167,-0.1448869705200195,-1.2468764781951904,0.0938441008329391,-0.2126573026180267,0.0208457615226507
2023-11-30 19:48:17.236073500,5.299073486328125,-0.8881193995475769,0.2343826293945312,-0.7835800647735596,0.1283579617738723,-0.0574976466596126,-0.0219147745519876
2023-11-30 19:48:17.254675700,5.31767578125,-0.8066983222961426,0.2355890274047851,-0.4215817451477051,0.1558468788862228,0.0280234217643737,-0.067118763923645
2023-11-30 19:48:17.273277700,5.336277587890625,-0.5242301225662231,-0.0812416076660156,-0.2102172374725341,0.1433241516351699,0.0500145554542541,-0.0689513608813285
2023-11-30 19:48:17.291880000,5.3548798828125,-0.4129329621791839,-0.6843118667602539,-0.2536652088165283,0.0471129454672336,0.0836121141910553,-0.0607046857476234
2023-11-30 19:48:17.310482000,5.37348193359375,-0.4883859753608703,-1.1509361267089844,-0.4524843692779541,-0.124845489859581,0.1181259751319885,-0.0607046857476234
2023-11-30 19:48:17.329084200,5.392084228515625,-0.6544314026832581,-1.1534013748168943,-0.9552772045135498,-0.275729089975357,0.1630245447158813,-0.0176387205719947
2023-11-30 19:48:17.347686100,5.41068603515625,-0.7178462743759155,-0.9116287231445312,-1.6062452793121338,-0.3795761168003082,0.2375500351190567,0.0434477590024471
2023-11-30 19:48:17.366288100,5.4292880859375,-0.7707383036613464,-0.6648283004760742,-1.9265484809875488,-0.4626537263393402,0.3438405096530914,0.1054505333304405
2023-11-30 19:48:17.384890400,5.447890380859375,-0.6104904413223267,-0.2906484603881836,-1.892016649246216,-0.4495201110839844,0.3187950551509857,0.2166279256343841
2023-11-30 19:48:17.403492400,5.466492431640625,0.5405288338661194,-0.9433755874633788,-1.6947956085205078,-0.2913061380386352,-0.07796161621809,0.3348302543163299
2023-11-30 19:48:17.422094600,5.485094482421875,1.8020648956298828,-2.359586715698242,-1.1092228889465332,-0.2094502598047256,-0.344909518957138,0.3146717250347137
2023-11-30 19:48:17.440696600,5.503696533203125,1.8022048473358157,-2.85939884185791,0.0240461826324462,-0.229608803987503,-0.2599993348121643,0.2068540900945663
2023-11-30 19:48:17.459298600,5.522298583984375,1.576119899749756,-2.581518173217773,0.7140533924102783,-0.2570977210998535,-0.146073043346405,0.1066722646355629
2023-11-30 19:48:17.477900800,5.54090087890625,1.2148054838180542,-1.399465560913086,1.0638277530670166,-0.2289979308843612,-0.1048396676778793,-0.0005345066892914
2023-11-30 19:48:17.496502800,5.559502685546875,0.8471817970275879,-0.3573713302612304,1.2963409423828125,-0.1117118969559669,-0.1207221522927284,-0.1056032478809356
2023-11-30 19:48:17.515105000,5.57810498046875,0.671371340751648,-0.2614574432373047,1.2358931303024292,0.1057559624314308,-0.1088102906942367,-0.2140317410230636
2023-11-30 19:48:17.533707000,5.59670703125,0.7972285747528076,-0.929880142211914,1.5820870399475098,0.3293324708938598,0.008475748822093,-0.307494044303894
2023-11-30 19:48:17.552309200,5.615309326171875,0.7228979468345642,-1.156534194946289,1.821150064468384,0.4059959948062897,0.289168119430542,-0.2961930632591247
2023-11-30 19:48:17.570911200,5.6339111328125,0.1832832098007202,-0.415593147277832,1.4101848602294922,0.3320813775062561,0.5130500793457031,-0.2305250912904739
2023-11-30 19:48:17.589513500,5.652513427734375,-0.0338059216737747,0.3179864883422851,0.922357439994812,0.2212094068527221,0.4770090281963348,-0.2195295244455337
2023-11-30 19:48:17.608115500,5.671115478515625,0.2022434026002884,0.6065359115600586,0.7062077522277832,0.1579848974943161,0.3753000497817993,-0.1908188909292221
2023-11-30 19:48:17.626717400,5.689717529296875,0.4120652973651886,1.115269660949707,0.4077377319335937,0.1576794683933258,0.2473238706588745,-0.119958572089672
2023-11-30 19:48:17.645319700,5.708319580078125,0.5334546566009521,1.901547908782959,0.1512939929962158,0.1647044122219085,0.0894153341650962,-0.0683404952287674
2023-11-30 19:48:17.663921700,5.726921630859375,0.4383693039417267,2.5650758743286133,0.2268884181976318,0.1503490954637527,-0.0681877806782722,-0.0164169911295175
2023-11-30 19:48:17.682523600,5.745523681640625,0.1726153492927551,2.9305005073547363,0.3324751853942871,0.1503490954637527,-0.1277471035718917,0.0290924347937107
2023-11-30 19:48:17.701126000,5.7641259765625,0.1112051084637641,2.86232852935791,0.6477751731872559,0.1986074149608612,-0.1653152853250503,0.0498618371784687
2023-11-30 19:48:17.719727900,5.782727783203125,0.2888457477092743,2.354431629180908,0.9229724407196044,0.2703840136528015,-0.1976911127567291,0.0141262477263808
2023-11-30 19:48:17.738330000,5.801330078125,0.3227558732032776,1.6484785079956057,1.2123253345489502,0.3388008773326874,-0.2114355713129043,-0.0057268571108579
2023-11-30 19:48:17.756932000,5.81993212890625,0.1363365203142166,0.8790884017944336,1.0846953392028809,0.3650680780410766,-0.238313615322113,0.0058795735239982
2023-11-30 19:48:17.775534000,5.8385341796875,-0.3329708874225616,0.0532779693603515,0.9506654739379884,0.3055087625980377,-0.2658025324344635,0.0526107288897037
2023-11-30 19:48:17.794136300,5.85713623046875,-1.0615798234939575,-0.7637844085693359,0.6790711879730225,0.1643989831209182,-0.3064250349998474,0.075212724506855
2023-11-30 19:48:17.812738600,5.875738525390625,-1.6828629970550537,-1.5383119583129885,0.66094970703125,-0.0274125561118125,-0.2603047490119934,0.1081994250416755
2023-11-30 19:48:17.831340500,5.894340576171875,-1.9284576177597048,-1.590376853942871,0.2998867034912109,-0.215253472328186,-0.2340375632047653,0.1503490954637527
2023-11-30 19:48:17.849942500,5.912942626953125,-1.910943388938904,-0.7744464874267578,0.073415994644165,-0.2772562503814697,-0.2667188346385956,0.1946367919445037
2023-11-30 19:48:17.868544800,5.931544677734375,-1.2782533168792725,-0.2736139297485351,-0.0474114418029785,-0.2207512557506561,-0.2994000911712646,0.2270126193761825
2023-11-30 19:48:17.887146800,5.950146728515625,-0.8514387607574463,-0.5175285339355469,-0.2545979022979736,-0.2073122411966323,-0.2141844630241394,0.2868773639202118
2023-11-30 19:48:17.905749000,5.9687490234375,-1.2919515371322632,-1.074737548828125,-0.854297399520874,-0.283975750207901,-0.0736855641007423,0.2874882221221924
2023-11-30 19:48:17.924351000,5.98735107421875,-1.6648350954055786,-1.4692392349243164,-1.0069496631622314,-0.3927097022533417,0.052152581512928,0.2529743909835815
2023-11-30 19:48:17.942953000,6.005952880859375,-1.5699268579483032,-1.168905258178711,-0.9685335159301758,-0.4846448302268982,0.0665079057216644,0.2282343506813049
2023-11-30 19:48:17.961555200,6.02455517578125,-1.367343544960022,-0.3962316513061523,-0.7441675662994385,-0.5384009480476379,0.0894153341650962,0.248087465763092
2023-11-30 19:48:17.980157200,6.0431572265625,-1.1749682426452637,0.1578550338745117,-0.9333610534667968,-0.4476875364780426,0.4247801005840301,0.3589594066143036
2023-11-30 19:48:17.998759200,6.06175927734375,0.1396651268005371,0.2806453704833984,-1.775456190109253,-0.1697440445423126,0.8035162687301636,0.451200008392334
2023-11-30 19:48:18.017361400,6.080361328125,2.019127368927002,-0.6931419372558594,-2.3108644485473637,0.0862082913517952,0.6031526327133179,0.3934732675552368
2023-11-30 19:48:18.035963400,6.09896337890625,2.8145923614501958,-1.5757455825805664,-1.620023250579834,0.152487114071846,0.1446985900402069,0.2373973280191421
2023-11-30 19:48:18.054565600,6.117565673828125,2.1134583950042725,-1.751138687133789,-0.316108226776123,0.1647044122219085,0.0603992566466331,0.0446694865822792
2023-11-30 19:48:18.073167600,6.136167724609375,1.6614980697631836,-1.459275245666504,1.0130386352539062,0.2679405510425567,0.2164752036333084,-0.1395062506198883
2023-11-30 19:48:18.091769600,6.15476953125,1.9451453685760496,-1.7311420440673828,1.497510552406311,0.4179078638553619,0.4009563624858856,-0.2735910713672638
2023-11-30 19:48:18.110371800,6.173371826171875,2.1559650897979736,-1.6749591827392578,1.1857893466949463,0.5040398240089417,0.3936260044574737,-0.3710239827632904
2023-11-30 19:48:18.128973800,6.191973876953125,1.8419883251190183,-1.4056968688964844,0.7707762718200684,0.396222174167633,0.2781725525856018,-0.4046215713024139
2023-11-30 19:48:18.147576000,6.210576171875,0.6090215444564819,-0.8162736892700195,0.5328130722045898,0.1515708267688751,0.1810450553894043,-0.3682751059532165
2023-11-30 19:48:18.166178000,6.229177978515625,-0.2361627221107483,-0.1414041519165039,0.3569302558898926,-0.1031597927212715,0.1563050299882888,-0.2842811942100525
2023-11-30 19:48:18.184780300,6.2477802734375,-0.576625406742096,0.5505580902099609,0.1810755729675293,-0.2470184415578842,0.0500145554542541,-0.2131154537200927
2023-11-30 19:48:18.203382300,6.26638232421875,-0.3863237798213959,1.280644416809082,0.3144757747650146,-0.2329685539007187,-0.106366828083992,-0.1969275325536728
2023-11-30 19:48:18.221984500,6.284984619140625,-0.0343002676963806,1.8713264465332031,0.5540463924407959,-0.1025489270687103,-0.1723402291536331,-0.2085339576005935
2023-11-30 19:48:18.240586500,6.30358642578125,0.2815729975700378,2.236663341522217,0.7799785137176514,0.06146826967597,-0.1161406636238098,-0.2189186662435531
2023-11-30 19:48:18.259188500,6.3221884765625,0.5193248987197876,2.282561779022217,0.9866840839385986,0.129885122179985,-0.1011744812130928,-0.2451858520507812
2023-11-30 19:48:18.277790700,6.340790771484375,0.4974363446235657,2.045703887939453,1.2156624794006348,0.0834593996405601,-0.1237764731049537,-0.2906952798366546
2023-11-30 19:48:18.296392700,6.359392822265625,0.4172602295875549,1.725996971130371,1.3260222673416138,0.0058795735239982,-0.0513890013098716,-0.3447568118572235
2023-11-30 19:48:18.314994700,6.37799462890625,0.6408722400665283,1.3080577850341797,1.2569968700408936,-0.0109192077070474,-0.0043524117209017,-0.3410916328430176
2023-11-30 19:48:18.333597000,6.396596923828125,1.0364599227905271,0.9423809051513672,0.840040922164917,0.0434477590024471,-0.1842520833015442,-0.2787834107875824
2023-11-30 19:48:18.352199000,6.415198974609375,1.3563400506973269,0.6832408905029297,0.1190636157989502,0.0978147238492965,-0.3574322462081909,-0.1627191007137298
2023-11-30 19:48:18.370801200,6.43380126953125,1.1750508546829224,0.6749076843261719,-0.7802338600158691,0.0562759190797805,-0.432568609714508,-0.0570394992828369
2023-11-30 19:48:18.389403100,6.452403076171875,0.4654255211353302,0.6575736999511719,-1.6308107376098633,-0.0591775253415107,-0.5669588446617126,0.0608574040234088
2023-11-30 19:48:18.408005000,6.471005126953125,-0.1999372541904449,0.4537248611450195,-2.316243886947632,-0.1648571342229843,-0.6949350237846375,0.187611848115921
2023-11-30 19:48:18.426607400,6.489607421875,-0.6370846629142761,0.3608016967773437,-2.692256450653076,-0.2002872824668884,-0.6836340427398682,0.257250428199768
2023-11-30 19:48:18.445209300,6.508209228515625,-0.8569216132164001,0.4030237197875976,-2.436541080474853,-0.1660788655281067,-0.5015963315963745,0.2694677114486694
2023-11-30 19:48:18.463811600,6.5268115234375,-1.0132911205291748,0.1159543991088867,-2.0617012977600098,-0.1340084671974182,-0.2086866796016693,0.2425896823406219
2023-11-30 19:48:18.482413600,6.54541357421875,-1.1869722604751587,-0.2026138305664062,-1.5046730041503906,-0.1337030231952667,0.0955239832401275,0.1598175019025802
2023-11-30 19:48:18.501015600,6.564015625,-0.9587751626968384,-0.6258831024169922,-0.9587633609771729,-0.1581376194953918,0.317267894744873,0.0965929925441742
2023-11-30 19:48:18.519617800,6.58261767578125,-0.5978096127510071,-0.9632968902587892,-0.9602808952331544,-0.2451858520507812,0.3969857394695282,0.0791833475232124
2023-11-30 19:48:18.538219800,6.6012197265625,-0.5540401935577393,-0.993793487548828,-1.185887575149536,-0.3609447181224823,0.4128682315349579,0.1207221522927284
2023-11-30 19:48:18.556822000,6.619822021484375,-0.5761986970901489,-0.8533220291137695,-1.624016523361206,-0.4712058305740356,0.4055378437042236,0.2288452237844467
2023-11-30 19:48:18.575424000,6.638424072265625,-0.4436668455600738,-1.0310935974121094,-2.106786012649536,-0.5109120011329651,0.2519053518772125,0.3672060966491699
2023-11-30 19:48:18.594026200,6.657026123046875,0.6362102627754211,-2.5363006591796875,-2.2684335708618164,-0.3908770978450775,-0.2218202799558639,0.5174788236618042
2023-11-30 19:48:18.612628200,6.675628173828125,2.039252281188965,-3.746976852416992,-1.7504949569702148,-0.236022874712944,-0.4295142889022827,0.4985420107841491
2023-11-30 19:48:18.631230500,6.69423046875,2.35799241065979,-2.630152702331543,-0.2435445785522461,-0.0897207632660865,-0.2838230431079864,0.4035525321960449
2023-11-30 19:48:18.649832400,6.71283251953125,2.1293787956237797,-1.2781009674072266,0.6102263927459717,0.1033125072717666,-0.1873064190149307,0.2963457703590393
2023-11-30 19:48:18.668434400,6.731434326171875,1.958950519561768,-0.1853923797607422,1.3438575267791748,0.3201695084571838,-0.1680641770362854,0.238313615322113
2023-11-30 19:48:18.687036700,6.75003662109375,1.657707691192627,0.2283649444580078,1.5739631652832031,0.5031235218048096,-0.2242637276649475,0.2004400044679641
2023-11-30 19:48:18.705638700,6.768638671875,1.0422884225845337,0.3518648147583008,2.049952507019043,0.5648208260536194,-0.3595702946186065,0.057192213833332
2023-11-30 19:48:18.724240600,6.78724072265625,0.0481562353670597,-0.0635843276977539,3.151088237762451,0.3711767196655273,-0.3610974550247192,-0.1046869531273841
2023-11-30 19:48:18.742843000,6.8058427734375,-1.5403670072555542,-0.6316471099853516,3.687136173248291,0.0910952091217041,-0.1469893306493759,-0.1282052397727966
2023-11-30 19:48:18.761444900,6.82444482421875,-1.9810999631881716,-0.6045207977294922,3.435953378677368,-0.0692567974328994,0.0371863916516304,-0.0622318498790264
2023-11-30 19:48:18.780047000,6.843047119140625,-0.9490288496017456,0.1114578247070312,2.7545998096466064,-0.1309541314840316,0.1165988147258758,-0.0423787422478199
2023-11-30 19:48:18.798649000,6.861649169921875,0.1365716904401779,0.7760887145996094,1.8435311317443848,-0.0891098976135253,0.0405461490154266,-0.0946076810359954
2023-11-30 19:48:18.817251000,6.8802509765625,0.9711875319480896,1.4219961166381836,1.2537517547607422,0.0315358936786651,-0.0929278060793876,-0.0982728749513626
2023-11-30 19:48:18.835853300,6.898853271484375,1.221304416656494,2.106308937072754,0.3970692157745361,0.1540142893791198,-0.2010508775711059,-0.0735328495502471
2023-11-30 19:48:18.854455300,6.917455322265625,0.986100971698761,2.573763847351074,-0.2228906154632568,0.2276234924793243,-0.2178496569395065,-0.0460439324378967
2023-11-30 19:48:18.873057500,6.9360576171875,0.5176727175712585,2.8201770782470703,-0.7199788093566895,0.2880991101264953,-0.1833357959985733,-0.0151952616870403
2023-11-30 19:48:18.891659500,6.954659423828125,0.1116054728627204,2.7173948287963867,-1.0229480266571045,0.3898080885410309,-0.2138790339231491,-0.0069485870189964
2023-11-30 19:48:18.910261500,6.973261474609375,-0.1051807105541229,2.238309860229492,-0.8147726058959961,0.4854084253311157,-0.1928042024374008,0.0101556265726685
2023-11-30 19:48:18.928863700,6.99186376953125,-0.5437461137771606,1.2887582778930664,-0.3358969688415527,0.4744128584861755,-0.1784488707780838,-0.0179441533982753
2023-11-30 19:48:18.947465700,7.0104658203125,-1.1661908626556396,-0.0182142257690429,0.3832223415374756,0.3632354736328125,-0.1546251475811004,-0.0307723134756088
2023-11-30 19:48:18.966067700,7.029067626953125,-1.6682512760162354,-1.0953502655029297,0.6496870517730713,0.192193329334259,-0.1213330179452896,0.0058795735239982
2023-11-30 19:48:18.984670000,7.047669921875,-1.7722266912460327,-1.6183786392211914,0.7947883605957031,0.0016035200096666,-0.1598175019025802,0.0352010838687419
2023-11-30 19:48:19.003272000,7.06627197265625,-1.6971476078033447,-1.6575908660888672,1.0339908599853516,-0.1706603467464447,-0.1924987584352493,0.0828485339879989
2023-11-30 19:48:19.021874200,7.084874267578125,-1.6241143941879272,-1.187342643737793,0.7336843013763428,-0.2705367505550384,-0.1769217103719711,0.1237764731049537
2023-11-30 19:48:19.040476200,7.10347607421875,-1.4298663139343262,-0.5616779327392578,0.1151850223541259,-0.212504580616951,-0.0923169404268264,0.146073043346405
2023-11-30 19:48:19.059078100,7.122078125,-0.8194253444671631,-0.1270265579223632,-0.3638067245483398,-0.0732274129986763,0.0124463699758052,0.1613446623086929
2023-11-30 19:48:19.077680400,7.140680419921875,-0.6236929297447205,0.2713041305541992,-0.9504780769348145,0.0025198173243552,0.0570394992828369,0.1909715980291366
2023-11-30 19:48:19.096282400,7.159282470703125,-0.9436999559402466,0.3742446899414062,-1.3085002899169922,-0.0301614478230476,0.0399352833628654,0.2239582985639572
2023-11-30 19:48:19.114884600,7.177884521484375,-1.3894100189208984,-0.1741237640380859,-1.3074369430541992,-0.1013271957635879,-0.0400880016386508,0.2209039777517318
2023-11-30 19:48:19.133486600,7.196486572265625,-1.4754669666290283,-1.419412612915039,-0.5234775543212891,-0.2012035846710205,-0.1476002037525177,0.1979965418577194
2023-11-30 19:48:19.152088600,7.215088623046875,-1.6477890014648438,-2.234503746032715,0.0812687873840332,-0.2696204483509063,0.0029779658652842,0.245338574051857
2023-11-30 19:48:19.170690800,7.23369091796875,-0.968159794807434,-2.338998794555664,-0.1864230632781982,-0.2430478185415268,0.2598465979099273,0.4032471179962158
2023-11-30 19:48:19.189292800,7.252292724609375,0.6155862808227539,-3.087860107421875,-1.3667426109313965,-0.1923460513353347,0.3105483949184418,0.4765508770942688
2023-11-30 19:48:19.207895000,7.27089501953125,1.819586038589477,-3.5991077423095703,-1.1859033107757568,-0.1999818533658981,0.0347429327666759,0.3525453209877014
2023-11-30 19:48:19.226497000,7.2894970703125,2.316340446472168,-3.400914192199707,0.016688585281372,-0.2344957143068313,-0.2432005405426025,0.2089921087026596
2023-11-30 19:48:19.245099000,7.30809912109375,2.1605520248413086,-1.7977705001831057,0.8100576400756836,-0.2726747691631317,-0.2557232677936554,0.131717711687088
2023-11-30 19:48:19.263701200,7.326701171875,1.7358300685882568,-0.4774932861328125,1.212622880935669,-0.2861137986183166,-0.0892626196146011,0.0138208158314228
2023-11-30 19:48:19.282303200,7.34530322265625,1.7983993291854858,-0.3853397369384765,1.350090265274048,-0.2390772104263305,0.1141553521156311,-0.1196531355381012
2023-11-30 19:48:19.300905200,7.3639052734375,1.84305739402771,-0.4447994232177734,0.8976380825042725,-0.1266780793666839,0.2002872824668884,-0.1895971596240997
2023-11-30 19:48:19.319507500,7.382507568359375,1.6965289115905762,-0.2122554779052734,0.2451353073120117,-0.0133626665920019,0.0775034725666046,-0.2399934977293014
2023-11-30 19:48:19.338109400,7.401109375,1.1709091663360596,0.293436050415039,-0.0586187839508056,0.0562759190797805,-0.0385608375072479,-0.2604574561119079
2023-11-30 19:48:19.356711700,7.419711669921875,0.5418774485588074,0.8446626663208008,-0.1786704063415527,0.0886517539620399,-0.0300087314099073,-0.2616792023181915
2023-11-30 19:48:19.375313700,7.438313720703125,0.0565952621400356,1.2871055603027344,0.0472354888916015,0.0849865600466728,0.0063377222977578,-0.279394268989563
2023-11-30 19:48:19.393915600,7.45691552734375,-0.2806140482425689,1.6969027519226074,0.6797537803649902,0.0709366723895073,0.0796414986252784,-0.3129918277263641
2023-11-30 19:48:19.412518000,7.475517822265625,-0.30228191614151,2.0932931900024414,1.2463760375976562,0.0663551837205886,0.1886808574199676,-0.33162322640419
2023-11-30 19:48:19.431120000,7.494119873046875,-0.0931819304823875,2.354220390319824,1.516261339187622,0.0703258067369461,0.2470184415578842,-0.3334558010101318
2023-11-30 19:48:19.449722000,7.51272216796875,0.1930069923400879,2.314497470855713,1.5567692518234253,0.0828485339879989,0.2195295244455337,-0.3875173330307007
2023-11-30 19:48:19.468324000,7.531323974609375,0.6347503662109375,1.9539546966552732,1.7092852592468262,0.0868191570043563,0.2436586916446685,-0.4110356271266937
2023-11-30 19:48:19.486926000,7.549926025390625,0.8358086347579956,1.5910987854003906,1.1200058460235596,0.0458912178874015,0.171882078051567,-0.3493382930755615
2023-11-30 19:48:19.505528300,7.5685283203125,0.8270549774169922,1.1413488388061523,0.1379978656768798,-0.0436004735529422,-0.0352010838687419,-0.2629009187221527
2023-11-30 19:48:19.524130300,7.58713037109375,0.695405900478363,0.8066654205322266,-0.5686180591583252,-0.1285106837749481,-0.2520580887794494,-0.1572213172912597
2023-11-30 19:48:19.542732500,7.605732666015625,0.4999856054782867,0.6167116165161133,-1.2415204048156738,-0.2021198868751526,-0.3693441152572632,-0.0646753087639808
2023-11-30 19:48:19.561334500,7.62433447265625,0.1555004715919494,0.570958137512207,-1.6624491214752195,-0.2540434002876282,-0.4072177410125732,-0.044516772031784
2023-11-30 19:48:19.579936500,7.6429365234375,-0.1537798345088958,0.6756830215454102,-1.7359158992767334,-0.2467130124568939,-0.3711767196655273,-0.0588720925152301
2023-11-30 19:48:19.598538800,7.661538818359375,-0.3769968748092651,0.876800537109375,-1.7554497718811035,-0.1847102344036102,-0.212962731719017,-0.0747545808553695
2023-11-30 19:48:19.617140700,7.680140625,-0.5515443682670593,1.1088895797729492,-1.6544475555419922,-0.0884990319609642,0.0197767466306686,-0.0319940410554409
2023-11-30 19:48:19.635742700,7.69874267578125,-0.6018083095550537,1.098587989807129,-1.6360599994659424,-0.0261908266693353,0.1550832986831665,0.0202348958700895
2023-11-30 19:48:19.654345000,7.717344970703125,-0.60512375831604,0.6956453323364258,-1.2880926132202148,-0.0231365039944648,0.185321107506752,0.0639117285609245
2023-11-30 19:48:19.672947000,7.735947021484375,-0.4759251475334167,0.1956138610839843,-0.903390884399414,-0.0680350661277771,0.2039524763822555,0.0999527499079704
2023-11-30 19:48:19.691549200,7.754549072265625,-0.325386643409729,-0.2946710586547851,-0.6497950553894043,-0.1569158881902694,0.2329685539007187,0.1158352345228195
2023-11-30 19:48:19.710151200,7.773151123046875,-0.186414822936058,-0.6480693817138672,-0.6396605968475342,-0.2769508063793182,0.2222784161567688,0.1231656074523925
2023-11-30 19:48:19.728753200,7.791753173828125,-0.2299980521202087,-0.5928306579589844,-1.047126531600952,-0.3979020416736603,0.2100611329078674,0.2151007652282714
2023-11-30 19:48:19.747355400,7.81035546875,-0.5308136343955994,-0.2629003524780273,-1.7201259136199951,-0.488004595041275,0.2002872824668884,0.3827831447124481
2023-11-30 19:48:19.765957400,7.828957275390625,-0.3203758299350738,-1.255615234375,-2.243666648864746,-0.4770090281963348,-0.0132099511101841,0.5871174335479736
2023-11-30 19:48:19.784559600,7.8475595703125,0.6135158538818359,-3.529656410217285,-2.763549566268921,-0.3154352903366089,-0.2789361178874969,0.5495492219924927
2023-11-30 19:48:19.803161600,7.86616162109375,1.572523593902588,-4.390554428100586,-1.3595964908599854,-0.0582612268626689,-0.2532798051834106,0.3427715003490448
2023-11-30 19:48:19.821763600,7.884763671875,1.8243849277496336,-3.838747024536133,0.0229945182800292,0.2080758213996887,-0.1042288020253181,0.2444222718477249
2023-11-30 19:48:19.840365800,7.90336572265625,1.484004259109497,-2.6363983154296875,0.5209128856658936,0.4053851366043091,-0.0929278060793876,0.1179732605814933
2023-11-30 19:48:19.858967800,7.9219677734375,1.388134479522705,-1.4214696884155271,1.743133783340454,0.5929206013679504,-0.194025918841362,-0.0509308502078056
2023-11-30 19:48:19.877570000,7.940570068359375,1.4158347845077517,-0.4541215896606445,2.654261827468872,0.7554106712341309,-0.3042870163917541,-0.1810450553894043
2023-11-30 19:48:19.896172000,7.959172119140625,1.1293288469314575,0.0921363830566406,3.4485955238342285,0.7697659730911255,-0.3048978745937347,-0.2790888547897339
2023-11-30 19:48:19.914774000,7.97777392578125,0.1124763935804367,-0.1293573379516601,4.051715850830078,0.4548651874065399,-0.0990364551544189,-0.3136027157306671
2023-11-30 19:48:19.933376300,7.996376220703125,-1.5775620937347412,-0.5073699951171875,4.274104595184326,0.0681877806782722,0.0717002525925636,-0.152945265173912
2023-11-30 19:48:19.951978200,8.014978271484376,-1.6355239152908323,-0.0545339584350585,3.315871238708496,-0.18990258872509,0.0090866135433316,0.0052687088027596
2023-11-30 19:48:19.970580200,8.033580322265625,-0.5519691705703735,0.6543006896972656,2.591104030609131,-0.2842811942100525,-0.0709366723895073,0.0529161617159843
2023-11-30 19:48:19.989182200,8.05218212890625,0.5548808574676514,1.4187908172607422,1.7177228927612305,-0.1941786408424377,-0.1341611742973327,0.0547487549483776
2023-11-30 19:48:20.007784400,8.070784423828124,1.4490114450454712,2.1890106201171875,0.7405695915222168,0.004657844081521,-0.1802814751863479,0.0223729219287633
2023-11-30 19:48:20.026386400,8.089386474609375,1.6428948640823364,2.680305957794189,-0.1175932884216308,0.1781434416770935,-0.2658025324344635,0.0339793525636196
2023-11-30 19:48:20.044988700,8.10798876953125,0.934048056602478,2.8580522537231445,-1.2319648265838623,0.2822958827018738,-0.4530325829982757,0.0718529671430587
2023-11-30 19:48:20.063590700,8.126590576171875,0.0567614138126373,2.5826382637023926,-1.9722201824188232,0.3840048611164093,-0.5938369035720825,0.075212724506855
2023-11-30 19:48:20.082192600,8.145192626953126,-0.3624659478664398,1.824603080749512,-1.8567571640014648,0.4744128584861755,-0.4328740537166595,0.0678823515772819
2023-11-30 19:48:20.100795000,8.163794921875,-0.7730703949928284,0.9772167205810548,-0.8727865219116211,0.5000692009925842,-0.1653152853250503,-0.0472656637430191
2023-11-30 19:48:20.119396900,8.18239697265625,-1.1978967189788818,0.1279373168945312,0.4405295848846435,0.4429533183574676,0.1147662177681922,-0.1330921649932861
2023-11-30 19:48:20.137999000,8.2009990234375,-1.6086339950561523,-0.3914880752563476,0.8571710586547852,0.3223075270652771,0.2622900605201721,-0.1227074638009071
2023-11-30 19:48:20.156601000,8.21960107421875,-1.7543870210647583,-0.5231485366821289,0.8533899784088135,0.190360739827156,0.1911243200302124,-0.0561232008039951
2023-11-30 19:48:20.175203000,8.238203125,-1.525340914726257,-0.4454631805419922,0.8172032833099365,0.0666606202721595,-0.0101556265726685,0.037949975579977
2023-11-30 19:48:20.193805300,8.256805419921875,-1.3053348064422607,-0.3260011672973633,0.7206473350524902,-0.0717002525925636,-0.1955530941486358,0.1152243688702583
2023-11-30 19:48:20.212407300,8.2754072265625,-1.334359645843506,-0.3491725921630859,0.6592297554016113,-0.1868482679128646,-0.2890154123306274,0.1680641770362854
2023-11-30 19:48:20.231009300,8.29400927734375,-1.2934916019439695,-0.4865856170654297,0.4543230533599853,-0.2467130124568939,-0.2639699280261993,0.1986074149608612
2023-11-30 19:48:20.249611500,8.312611572265626,-1.2808290719985962,-0.5104970932006836,0.0171775817871093,-0.2250273078680038,-0.1698967665433883,0.1811977624893188
2023-11-30 19:48:20.268213500,8.331213623046875,-1.0977526903152466,-0.6214885711669922,-0.3017988204956054,-0.1446985900402069,-0.040698867291212,0.117667831480503
2023-11-30 19:48:20.286815700,8.349815673828125,-0.9531958103179932,-0.9473762512207032,-0.531895637512207,-0.0790306329727172,0.0753654390573501,0.0703258067369461
2023-11-30 19:48:20.305417700,8.368417724609374,-0.9749408960342408,-1.2067985534667969,-0.7119467258453369,-0.0930805206298828,0.143782302737236,0.0822376683354377
2023-11-30 19:48:20.324019700,8.387019775390625,-1.2073495388031006,-1.3180809020996094,-0.7326807975769043,-0.1966221034526825,0.1318704336881637,0.1445458829402923
2023-11-30 19:48:20.342622000,8.4056220703125,-1.6072511672973633,-1.2386846542358398,-0.542797327041626,-0.3386481702327728,0.132175862789154,0.2209039777517318
2023-11-30 19:48:20.361224000,8.424223876953125,-1.8790969848632808,-1.0017633438110352,-0.4708657264709472,-0.3811032772064209,0.3291797637939453,0.3446041047573089
2023-11-30 19:48:20.379826200,8.442826171875,-0.7386212348937988,-1.2709674835205078,-1.1845929622650146,-0.3090212345123291,0.497778445482254,0.5425242781639099
2023-11-30 19:48:20.398428200,8.46142822265625,0.8544361591339111,-2.2158279418945312,-2.258635997772217,-0.2155589163303375,0.4709003865718841,0.607886791229248
2023-11-30 19:48:20.417030100,8.480030029296875,2.0303003787994385,-3.116048812866211,-1.787461280822754,-0.1272889524698257,0.0805577933788299,0.4350120723247528
2023-11-30 19:48:20.435632400,8.49863232421875,2.639497756958008,-3.829923629760742,-0.4498581886291504,-0.0775034725666046,-0.3891972303390503,0.275270938873291
2023-11-30 19:48:20.454234400,8.517234375,1.951820969581604,-2.926682472229004,0.566638708114624,-0.0961348414421081,-0.4768563210964203,0.1753945499658584
2023-11-30 19:48:20.472836400,8.53583642578125,0.7041916251182556,-1.2955169677734375,1.5798399448394775,-0.1474474817514419,-0.2117410004138946,-0.0463493652641773
2023-11-30 19:48:20.491438300,8.554438232421875,0.2486067116260528,-0.3341598510742187,2.4796316623687744,-0.1578321903944015,0.2531270980834961,-0.2693150043487549
2023-11-30 19:48:20.510040600,8.57304052734375,0.4463912844657898,0.6863889694213867,1.991338968276977,-0.0979674383997917,0.6856193542480469,-0.4055378437042236
2023-11-30 19:48:20.528642600,8.591642578125,0.9987078905105592,1.6529817581176758,1.0209813117980957,0.015653409063816,0.8933134078979492,-0.5041925311088562
2023-11-30 19:48:20.547244800,8.610244873046875,1.4603005647659302,2.204583168029785,0.3151884078979492,0.1802814751863479,0.8786526322364807,-0.5179370045661926
2023-11-30 19:48:20.565846800,8.6288466796875,1.7361719608306885,2.3717517852783203,-0.5878403186798096,0.3128391206264496,0.667904257774353,-0.4565450549125671
2023-11-30 19:48:20.584448800,8.64744873046875,1.4866085052490234,2.346004009246826,-1.1312835216522217,0.3479638397693634,0.34903284907341,-0.3951531648635864
2023-11-30 19:48:20.603051000,8.666051025390624,0.8314366340637207,2.1927685737609863,-0.8884835243225098,0.321391224861145,0.1666897237300872,-0.327041745185852
2023-11-30 19:48:20.621653000,8.684653076171875,0.1832763850688934,2.0101470947265625,-0.3073182106018066,0.2483928948640823,0.1092684343457222,-0.2968039214611053
2023-11-30 19:48:20.640255200,8.703255126953126,-0.3217781186103821,1.8025798797607424,0.4397690296173095,0.1808923333883285,0.1138499230146408,-0.2876409590244293
2023-11-30 19:48:20.658857200,8.721857177734375,-0.3130767345428467,1.5242815017700195,0.8927474021911621,0.1219438835978508,0.1468366235494613,-0.3160461783409118
2023-11-30 19:48:20.677459200,8.740459228515626,-0.1752890646457672,1.1484003067016602,1.2466328144073486,0.0339793525636196,0.1563050299882888,-0.3358992636203766
2023-11-30 19:48:20.696061400,8.7590615234375,-0.0539898611605167,0.7230663299560547,1.146744728088379,-0.05337430909276,0.0784197673201561,-0.3429242074489593
2023-11-30 19:48:20.714663400,8.777663330078125,0.2919846773147583,0.2515211105346679,0.8687222003936768,-0.0946076810359954,0.021609341725707,-0.2928332984447479
2023-11-30 19:48:20.733265700,8.796265625,0.6602531671524048,-0.1390037536621093,0.1413009166717529,-0.1052978187799453,-0.0217620581388473,-0.2192240953445434
2023-11-30 19:48:20.751867600,8.81486767578125,0.7043085098266602,-0.2661581039428711,-0.6501214504241943,-0.0765871703624725,-0.1085048541426658,-0.1278998106718063
2023-11-30 19:48:20.770469600,8.8334697265625,0.5820521116256714,-0.2011041641235351,-1.4633464813232422,-0.0396298542618751,-0.2743546366691589,-0.0497091226279735
2023-11-30 19:48:20.789071600,8.852071533203125,0.0281451493501663,0.2054767608642578,-1.964472770690918,-0.0484873913228511,-0.3641517758369446,-0.0518471486866474
2023-11-30 19:48:20.807673900,8.870673828125,-0.7383222579956055,0.78887939453125,-1.8710567951202397,-0.0790306329727172,-0.1613446623086929,-0.0720056891441345
2023-11-30 19:48:20.826275800,8.88927587890625,-1.2093729972839355,1.3646955490112305,-1.6439323425292969,-0.0616209842264652,0.1450040340423584,-0.0481819584965705
2023-11-30 19:48:20.844877800,8.9078779296875,-1.075056791305542,1.5313606262207031,-1.1254594326019287,-0.0121409371495246,0.3117701113224029,-0.0426841750741004
2023-11-30 19:48:20.863480000,8.92647998046875,-0.5317535996437073,0.947840690612793,-0.4930412769317627,0.0327576249837875,0.3276526033878326,-0.0374918244779109
2023-11-30 19:48:20.882082000,8.94508203125,0.0531207807362079,-0.0987071990966796,-0.3177587985992431,0.0214566253125667,0.2128100246191024,-0.0173332877457141
2023-11-30 19:48:20.900684300,8.963684326171874,0.3886706233024597,-1.0264921188354492,-0.2582414150238037,-0.0613155514001846,0.0497091226279735,0.0309250298887491
2023-11-30 19:48:20.919286300,8.982286376953125,0.4611777365207672,-1.6575117111206057,-0.4436953067779541,-0.2283870726823806,-0.0904843434691429,0.1027016416192054
2023-11-30 19:48:20.937888300,9.00088818359375,-0.0735500231385231,-1.4106721878051758,-0.7535433769226074,-0.4116465151309967,-0.1952476501464843,0.2193768173456192
2023-11-30 19:48:20.956490500,9.019490478515625,-0.872661828994751,-0.7310628890991211,-1.3992562294006348,-0.5555051565170288,-0.1650098413228988,0.3736201822757721
2023-11-30 19:48:20.975092500,9.038092529296875,-1.3323668241500854,-0.6535396575927734,-2.073923110961914,-0.5655844211578369,0.0564286336302757,0.4912116527557373
2023-11-30 19:48:20.993694700,9.05669482421875,-0.4797163903713226,-1.8236103057861328,-2.6753509044647217,-0.3862956166267395,0.1098792999982833,0.4499782621860504
2023-11-30 19:48:21.012296700,9.075296630859375,1.157062530517578,-2.852121353149414,-1.825270175933838,-0.1682168841361999,0.0448222048580646,0.297872930765152
2023-11-30 19:48:21.030898700,9.093898681640624,1.9657272100448608,-2.165670394897461,-0.1690375804901123,-0.011530072428286,0.1165988147258758,0.1512653976678848
2023-11-30 19:48:21.049500700,9.112500732421877,1.9308985471725464,-0.9491128921508788,0.8113842010498047,0.1472947746515274,0.0720056891441345,0.0633008629083633
2023-11-30 19:48:21.068103000,9.13110302734375,2.0295207500457764,-0.3922948837280273,1.3052899837493896,0.3562105298042297,-0.1744782477617263,0.0031306820455938
2023-11-30 19:48:21.086705000,9.149704833984377,1.9670811891555784,-0.2037601470947265,1.8787765502929688,0.6570614576339722,-0.6094139814376831,-0.1022434905171394
2023-11-30 19:48:21.105307000,9.168306884765624,2.0399115085601807,-0.5278739929199219,2.678188800811768,0.9188169836997986,-0.79358971118927,-0.2238055765628814
2023-11-30 19:48:21.123909000,9.1869091796875,1.2371448278427124,-1.1287174224853516,3.197486400604248,0.7575486898422241,-0.5296961069107056,-0.3753000497817993
2023-11-30 19:48:21.142511000,9.205510986328123,-1.6012130975723269,-1.803607940673828,3.887638092041016,0.1900553107261657,-0.1249982044100761,-0.3132972717285156
2023-11-30 19:48:21.161113300,9.22411328125,-3.2578933238983154,-1.7211799621582031,2.891751289367676,-0.2256381809711456,0.0045051276683807,-0.0573449321091175
2023-11-30 19:48:21.179715300,9.24271533203125,-1.9115350246429443,-0.6179075241088867,1.4931633472442627,-0.4489092528820038,0.0594829581677913,0.0559704862534999
2023-11-30 19:48:21.198317300,9.2613173828125,-0.3772125244140625,0.7063064575195312,0.8400826454162598,-0.4693732261657715,0.1453094631433487,0.0129045182839035
2023-11-30 19:48:21.216919600,9.27991943359375,0.7965444326400757,2.072307586669922,0.5366058349609375,-0.3093266487121582,0.261984646320343,-0.0762817412614822
2023-11-30 19:48:21.235521500,9.298521484375,1.4039095640182495,3.035472869873047,0.0044307708740234,-0.0381026901304721,0.2570977210998535,-0.062537282705307
2023-11-30 19:48:21.254123500,9.31712353515625,1.450848937034607,3.6443839073181152,-0.9802992343902588,0.206548660993576,-0.033673919737339,0.0361173786222934
2023-11-30 19:48:21.272725800,9.335725830078124,0.871130645275116,3.955841064453125,-1.7544734477996826,0.3620137274265289,-0.3595702946186065,0.1100320219993591
2023-11-30 19:48:21.291327700,9.35432763671875,0.2030566930770874,3.8762474060058594,-2.0172581672668457,0.4676933586597442,-0.3626246154308319,0.1201112866401672
2023-11-30 19:48:21.309929700,9.3729296875,-0.3867886066436767,3.040489673614502,-1.386821985244751,0.5907825827598572,-0.2523635029792785,0.0593302398920059
2023-11-30 19:48:21.328532000,9.391531982421874,-0.4395410418510437,1.6627864837646484,-0.0198159217834472,0.6989056468009949,-0.2780198454856872,-0.0393244214355945
2023-11-30 19:48:21.347134000,9.410134033203123,-0.6659858226776123,0.2593526840209961,0.8618898391723633,0.6924915909767151,-0.256334125995636,-0.0362700968980789
2023-11-30 19:48:21.365736200,9.428736083984376,-1.4154489040374756,-0.9598684310913086,0.8429906368255615,0.5150353908538818,-0.2346484363079071,0.0278707053512334
2023-11-30 19:48:21.384338200,9.447338134765625,-2.2351274490356445,-2.153635025024414,0.8010950088500977,0.2270126193761825,-0.2004400044679641,0.0791833475232124
2023-11-30 19:48:21.402940200,9.465940185546875,-2.362196445465088,-2.611571311950684,0.8358945846557617,-0.0582612268626689,-0.1011744812130928,0.1042288020253181
2023-11-30 19:48:21.421542400,9.48454248046875,-2.1475210189819336,-1.3443002700805664,0.5956802368164062,-0.2036470472812652,0.0503199845552444,0.1066722646355629
2023-11-30 19:48:21.440144400,9.503144287109375,-1.5294713973999023,0.0297574996948242,0.0686976909637451,-0.1535561382770538,0.132175862789154,0.1140026375651359
2023-11-30 19:48:21.458746400,9.521746337890624,-0.6247362494468689,0.3212394714355469,-0.6704592704772949,-0.0020616685505956,0.1016326248645782,0.109115719795227
2023-11-30 19:48:21.477348400,9.540348388671877,-0.3288794755935669,-0.1483192443847656,-1.2471835613250732,0.091400645673275,0.052152581512928,0.0742964297533035
2023-11-30 19:48:21.495950600,9.55895068359375,-0.8123284578323364,-0.9034061431884766,-1.223473310470581,0.0684932097792625,0.1721875071525573,0.0410043001174926
2023-11-30 19:48:21.514552600,9.577552490234376,-1.3807885646820068,-1.6180105209350586,-0.4881970882415771,-0.0167224239557981,0.2879463732242584,-0.0319940410554409
2023-11-30 19:48:21.533154800,9.59615478515625,-1.678847312927246,-2.1574363708496094,0.4897778034210205,-0.1120173260569572,0.3163515925407409,-0.0316886119544506
2023-11-30 19:48:21.551756800,9.6147568359375,-1.5225290060043335,-2.256263732910156,0.3396584987640381,-0.1908188909292221,0.3346775472164154,0.187611848115921
2023-11-30 19:48:21.570358800,9.63335888671875,-0.3851939439773559,-2.6431655883789062,-1.554720401763916,-0.2308305352926254,0.2861137986183166,0.4359283745288849
2023-11-30 19:48:21.588961000,9.6519609375,1.0628440380096436,-3.0605945587158203,-2.416264295578003,-0.2662606835365295,0.0035888305865228,0.3103956580162048
2023-11-30 19:48:21.607563000,9.67056298828125,1.6136653423309326,-2.0456371307373047,-0.3275082111358642,-0.1492800861597061,-0.0232892204076051,0.2981783747673034
2023-11-30 19:48:21.626165200,9.689165283203126,1.865217924118042,-1.271153450012207,-0.3490276336669922,-0.0237473677843809,-0.0712421014904975,0.1808923333883285
2023-11-30 19:48:21.644767200,9.707767333984377,1.4830247163772583,-1.1184015274047852,0.7625248432159424,0.040698867291212,-0.062995433807373,0.0370336771011352
2023-11-30 19:48:21.663369200,9.726369140625,0.8043773174285889,-0.9198684692382812,1.0107343196868896,0.0874300226569175,0.151112675666809,-0.1025489270687103
2023-11-30 19:48:21.681971200,9.74497119140625,0.6643359661102295,-0.5143394470214844,1.163032293319702,0.0917060747742652,0.4574613571166992,-0.2436586916446685
2023-11-30 19:48:21.700573400,9.763573486328124,0.6385372877120972,0.3015937805175781,0.90421462059021,0.0590248107910156,0.6804270148277283,-0.3319286406040191
2023-11-30 19:48:21.719175400,9.782175537109374,0.7237938642501831,1.1379852294921875,0.2827720642089844,0.0196240302175283,0.7601448893547058,-0.3872119188308716
2023-11-30 19:48:21.737777400,9.80077734375,0.8215727806091309,1.7333498001098633,-0.1587083339691162,0.0217620581388473,0.6868410706520081,-0.4067595899105072
2023-11-30 19:48:21.756379600,9.819379638671874,1.005378007888794,2.032925605773926,-0.542142391204834,0.0715475380420684,0.5099957585334778,-0.3698022663593292
2023-11-30 19:48:21.774981600,9.837981689453123,1.06262469291687,1.9688687324523928,-0.8955225944519043,0.129885122179985,0.3383427262306213,-0.3258199989795685
2023-11-30 19:48:21.793583900,9.856583984375,0.8222038745880127,1.7206535339355469,-0.5655999183654785,0.1619555205106735,0.1669951528310775,-0.3304014801979065
2023-11-30 19:48:21.812185900,9.875185791015625,0.4250348210334778,1.5678367614746094,0.3677759170532226,0.1665370166301727,-0.0025198173243552,-0.3585012555122375
2023-11-30 19:48:21.830787800,9.893787841796875,0.1448246836662292,1.446627140045166,1.2005712985992432,0.1469893306493759,-0.1106428802013397,-0.3856847584247589
2023-11-30 19:48:21.849389800,9.912389892578124,0.0135700702667236,1.3689308166503906,1.841020941734314,0.1198058575391769,-0.0868191570043563,-0.3829358518123626
2023-11-30 19:48:21.867992000,9.930991943359375,0.0846662819385528,1.4310245513916016,2.014582395553589,0.0651334598660469,0.0594829581677913,-0.3691914081573486
2023-11-30 19:48:21.886594000,9.949593994140624,0.2715097069740295,1.4440374374389648,1.8109164237976076,-0.008475748822093,0.093691386282444,-0.386601060628891
2023-11-30 19:48:21.905196300,9.9681962890625,0.5959374904632568,1.2880840301513672,1.166666030883789,-0.0512362830340862,0.044516772031784,-0.367969661951065
2023-11-30 19:48:21.923798300,9.98679833984375,0.8389564752578735,1.1159906387329102,-0.027529239654541,-0.061010118573904,0.0158061254769563,-0.2900844216346741
2023-11-30 19:48:21.942400300,10.005400146484376,0.8322604894638062,0.8907432556152344,-1.3755037784576416,-0.0322994738817215,-0.0697149410843849,-0.2497673332691192
2023-11-30 19:48:21.961002500,10.02400244140625,0.7199224233627319,0.4801502227783203,-2.3258235454559326,0.046807512640953,-0.183030366897583,-0.2115882933139801
2023-11-30 19:48:21.979604500,10.0426044921875,0.4632772505283355,0.1252346038818359,-3.326096534729004,0.1225547492504119,-0.3048978745937347,-0.2357174456119537
2023-11-30 19:48:21.998206500,10.06120654296875,-0.2685902714729309,0.4440670013427734,-3.251265048980713,0.2071595191955566,-0.2184605151414871,-0.2289979308843612
2023-11-30 19:48:22.016808400,10.079808349609374,-0.8830749988555908,1.1696319580078125,-2.30018949508667,0.2767980992794037,-0.0284815710037946,-0.17371466755867
2023-11-30 19:48:22.035410700,10.09841064453125,-1.1545947790145874,1.1966619491577148,-1.1981477737426758,0.2838230431079864,0.1639408320188522,-0.1220965981483459
2023-11-30 19:48:22.054012700,10.1170126953125,-1.0537680387496948,0.3659257888793945,-0.5722610950469971,0.2080758213996887,0.2800051569938659,-0.0689513608813285
2023-11-30 19:48:22.072615000,10.135614990234377,-0.7644331455230713,-0.7867679595947266,-0.3348691463470459,0.044058620929718,0.2638172209262848,-0.0060322894714772
2023-11-30 19:48:22.091217000,10.154216796875,-0.5166938304901123,-1.6813058853149414,-0.2113301753997802,-0.1804341822862625,0.1886808574199676,0.0174860041588544
2023-11-30 19:48:22.109819000,10.17281884765625,-0.3074867725372314,-2.087015151977539,0.051481008529663,-0.3960694372653961,0.1013271957635879,0.0245109498500823
2023-11-30 19:48:22.128420900,10.1914208984375,-0.131994366645813,-1.6154565811157229,-0.1083121299743652,-0.5078576803207397,0.0271071251481771,0.1466839015483856
2023-11-30 19:48:22.147023000,10.210023193359374,-0.2639824748039245,-0.7903270721435547,-1.1424548625946045,-0.4867828786373138,-0.0410043001174926,0.3250564336776733
2023-11-30 19:48:22.165625000,10.228625,0.1785154938697815,-1.8138952255249023,-2.0215954780578613,-0.3966803252696991,-0.1818086355924606,0.4148535430431366
2023-11-30 19:48:22.184227300,10.247227294921874,0.8622646331787109,-3.333045959472656,-2.1355934143066406,-0.3603338599205017,-0.2548069655895233,0.3494910001754761
2023-11-30 19:48:22.202829300,10.265829345703125,1.0189234018325806,-2.759428024291992,-0.8723177909851074,-0.2894735336303711,-0.1653152853250503,0.3055087625980377
2023-11-30 19:48:22.221431300,10.284431396484376,1.3411006927490234,-1.8463544845581052,-0.3842310905456543,-0.1239291951060295,-0.2270126193761825,0.2138790339231491
2023-11-30 19:48:22.240033500,10.303033447265625,1.970095157623291,-1.4233407974243164,0.6372613906860352,0.1286633908748626,-0.4160752594470978,0.0565813519060611
2023-11-30 19:48:22.258635500,10.321635498046875,2.3608384132385254,-0.9973859786987304,1.63032066822052,0.4450913369655609,-0.5284743905067444,-0.0869718715548515
2023-11-30 19:48:22.277237500,10.340237548828124,2.0285558700561523,-0.3458614349365234,2.346996784210205,0.7596867084503174,-0.5611556768417358,-0.1697440445423126
2023-11-30 19:48:22.295839500,10.358839599609375,1.142333745956421,-0.0590343475341796,2.90853214263916,0.8555924892425537,-0.4530325829982757,-0.2146426141262054
2023-11-30 19:48:22.314441700,10.377441650390624,-0.6858497858047485,-0.1919116973876953,3.284977912902832,0.4359283745288849,-0.1417969912290573,-0.2173915058374405
2023-11-30 19:48:22.333043700,10.396043701171877,-3.4715073108673096,-0.6229944229125977,3.5662569999694824,0.0626899972558021,0.0894153341650962,-0.0277179889380931
2023-11-30 19:48:22.351646000,10.41464599609375,-2.518651962280273,-0.1474809646606445,2.4050841331481934,-0.1242346242070198,0.1468366235494613,0.1106428802013397
2023-11-30 19:48:22.370248000,10.433248046875,-0.894976019859314,0.7415647506713867,1.661806583404541,-0.1526398360729217,0.1471420526504516,0.0907897800207138
2023-11-30 19:48:22.388850000,10.451849853515624,0.529319167137146,1.7165484428405762,1.2311890125274658,-0.0463493652641773,0.148363783955574,0.015347977168858
2023-11-30 19:48:22.407452000,10.470451904296874,1.3929548263549805,2.552218437194824,0.6364226341247559,0.1121700480580329,0.1300378441810608,0.0116827888414263
2023-11-30 19:48:22.426054100,10.48905419921875,1.3919179439544678,3.062718391418457,-0.2392771244049072,0.2126573026180267,-0.0049632764421403,0.0993418842554092
2023-11-30 19:48:22.444656000,10.50765625,0.6796253323554993,3.2603821754455566,-1.0371644496917725,0.2425896823406219,-0.2612210512161255,0.1332448869943618
2023-11-30 19:48:22.463258400,10.52625830078125,-0.0807331204414367,2.921863555908203,-1.144866943359375,0.2829067409038543,-0.4670824706554413,0.1314122825860977
2023-11-30 19:48:22.481860400,10.5448603515625,-0.4975822269916534,2.0884714126586914,-1.1893360614776611,0.3268890082836151,-0.4475347995758056,0.1384372264146804
2023-11-30 19:48:22.500462300,10.56346240234375,-1.0473434925079346,0.9609708786010742,-0.7538344860076904,0.2884045243263244,-0.2636645138263702,0.075212724506855
2023-11-30 19:48:22.519064600,10.582064697265626,-1.7108310461044312,-0.1170387268066406,0.1216962337493896,0.1912770271301269,-0.0275652725249528,0.0348956510424613
2023-11-30 19:48:22.537666600,10.60066650390625,-2.026783227920532,-0.9290666580200196,0.4395163059234619,0.0773507505655288,0.1098792999982833,0.0892626196146011
2023-11-30 19:48:22.556268500,10.6192685546875,-1.9911048412323,-1.3698234558105469,0.4070794582366943,-0.050625417381525,0.1431714296340942,0.1543197184801101
2023-11-30 19:48:22.574870500,10.63787060546875,-1.7847305536270142,-1.4881181716918943,0.529874324798584,-0.2033416181802749,0.0961348414421081,0.1692859083414077
2023-11-30 19:48:22.593472800,10.65647265625,-1.6246154308319092,-0.9728784561157228,0.7719893455505371,-0.320933073759079,0.1138499230146408,0.2047160565853119
2023-11-30 19:48:22.612074800,10.67507470703125,-1.3819493055343628,-0.2912044525146484,0.5488061904907227,-0.3533089160919189,0.1300378441810608,0.1845575273036956
2023-11-30 19:48:22.630677000,10.693677001953125,-0.7768117189407349,-0.1404228210449218,0.5956168174743652,-0.3267363011837005,0.1263726502656936,0.1986074149608612
2023-11-30 19:48:22.649279000,10.712279052734376,-0.529080867767334,-0.0026407241821289,-0.0131464004516601,-0.2766453921794891,0.0976620092988014,0.2215148359537124
2023-11-30 19:48:22.667881000,10.730880859375,-0.620753288269043,0.1480360031127929,-0.3393769264221191,-0.231441393494606,0.1181259751319885,0.1955530941486358
2023-11-30 19:48:22.686483000,10.74948291015625,-0.8913863301277161,-0.2563161849975586,-0.291947603225708,-0.1761581301689148,0.1902080178260803,0.1243873387575149
2023-11-30 19:48:22.705085200,10.768085205078124,-1.2104213237762451,-0.8610820770263672,0.1980664730072021,-0.1758527010679245,0.3019962608814239,0.0385608375072479
2023-11-30 19:48:22.723687200,10.786687255859375,-1.7046617269515991,-1.1073379516601562,0.542335033416748,-0.1340084671974182,0.5426769852638245,0.1133917719125747
2023-11-30 19:48:22.742289400,10.805289306640624,-0.4937887191772461,-1.787639617919922,-0.6143736839294434,-0.1043815165758133,0.4015672206878662,0.2486983239650726
2023-11-30 19:48:22.760891400,10.823891357421877,0.5555546283721924,-2.870635986328125,-1.1093533039093018,-0.2027307450771331,0.062537282705307,0.208381250500679
2023-11-30 19:48:22.779493400,10.842493408203126,0.9373493194580078,-2.959099769592285,-0.068655252456665,-0.2402989268302917,0.0286342874169349,0.2221257090568542
2023-11-30 19:48:22.798095400,10.861095458984376,1.8953070640563965,-3.733165740966797,-0.3414030075073242,-0.0915533602237701,-0.1534034162759781,0.106366828083992
2023-11-30 19:48:22.816697600,10.879697509765624,2.906401395797729,-3.734529495239258,0.7406442165374756,0.1118646115064621,-0.3644571900367737,-0.1169042438268661
2023-11-30 19:48:22.835299600,10.898299560546874,2.440685749053955,-2.1943492889404297,1.2862000465393066,0.2587775886058807,-0.0715475380420684,-0.2470184415578842
2023-11-30 19:48:22.853901600,10.916901611328123,1.206345796585083,-0.3827161788940429,0.8306958675384521,0.2569449841976166,0.4052324295043945,-0.3410916328430176
2023-11-30 19:48:22.872503800,10.93550390625,0.2541425228118896,0.9661741256713868,0.1670186519622802,0.1995237022638321,0.7216603755950928,-0.4287507236003876
2023-11-30 19:48:22.891105800,10.954105712890623,0.2569541335105896,1.7046585083007812,-0.4433715343475342,0.1946367919445037,0.8697950839996338,-0.4272235631942749
2023-11-30 19:48:22.909707800,10.972707763671876,0.6199679970741272,2.0437068939208984,-1.3112361431121826,0.260915607213974,0.7949641346931458,-0.3472002744674682
2023-11-30 19:48:22.928310000,10.99131005859375,1.0115118026733398,1.8197879791259768,-1.8559775352478027,0.362930029630661,0.4815905094146728,-0.2745073735713959
2023-11-30 19:48:22.946912000,11.009912109375,1.3068370819091797,1.138895034790039,-1.6843934059143066,0.4203513264656067,0.1755472719669342,-0.2461021542549133
2023-11-30 19:48:22.965514000,11.028513916015624,0.9678238034248352,0.8655338287353516,-0.649468183517456,0.3794233798980713,-0.0932332351803779,-0.3300960659980774
2023-11-30 19:48:22.984116200,11.0471162109375,0.3651440143585205,1.0490684509277344,0.9145983457565308,0.279852420091629,-0.1906661689281463,-0.3774380683898926
2023-11-30 19:48:23.002718200,11.06571826171875,0.001257300376892,1.2875871658325195,1.543668508529663,0.152487114071846,-0.0455857850611209,-0.3591121435165405
2023-11-30 19:48:23.021320200,11.0843203125,-0.234106183052063,1.5791630744934082,1.7886083126068115,0.0086284652352333,0.2671769857406616,-0.3010799884796142
2023-11-30 19:48:23.039922400,11.10292236328125,-0.2769778370857239,1.935821533203125,1.7274709939956665,-0.124845489859581,0.4650971591472626,-0.2702313065528869
2023-11-30 19:48:23.058524400,11.1215244140625,-0.0349097847938537,1.972780704498291,1.3279045820236206,-0.1966221034526825,0.4650971591472626,-0.2244164496660232
2023-11-30 19:48:23.077126400,11.14012646484375,0.3969016671180725,1.6666946411132812,0.2370011806488037,-0.2176969349384308,0.3139081299304962,-0.1593593508005142
2023-11-30 19:48:23.095728600,11.158728759765625,0.73820561170578,1.3531904220581057,-0.703141450881958,-0.1957058012485504,0.1343138962984085,-0.0854447111487388
2023-11-30 19:48:23.114330600,11.17733056640625,0.8893955945968628,1.0935802459716797,-1.5910568237304688,-0.1477529257535934,-0.0162642747163772,-0.0243582334369421
2023-11-30 19:48:23.132932600,11.1959326171875,0.619683027267456,1.0377531051635742,-2.1148531436920166,-0.0738382786512374,-0.1512653976678848,0.0031306820455938
2023-11-30 19:48:23.151534600,11.21453466796875,0.2125885188579559,0.9405488967895508,-2.138129472732544,0.0086284652352333,-0.1961639523506164,0.0330630578100681
2023-11-30 19:48:23.170136800,11.23313671875,-0.2725259065628052,0.6188135147094727,-1.901479721069336,0.0477238111197948,-0.1130863428115844,0.0300087314099073
2023-11-30 19:48:23.188738800,11.25173876953125,-0.790615439414978,0.3754472732543945,-1.1899774074554443,0.0327576249837875,0.0249690972268581,0.0132099511101841
2023-11-30 19:48:23.207341000,11.270341064453126,-0.9760823249816896,0.2472724914550781,-0.6544754505157471,-0.0127518018707633,0.1425605714321136,0.0077121676877141
2023-11-30 19:48:23.225943000,11.288943115234376,-0.7689329385757446,0.0632457733154296,-0.2947988510131836,-0.0897207632660865,0.1636354029178619,0.0199294630438089
2023-11-30 19:48:23.244545000,11.307544921875,-0.4376780092716217,-0.2495622634887695,-0.1483902931213379,-0.1844048053026199,0.125761792063713,0.0419205948710441
2023-11-30 19:48:23.263147000,11.32614697265625,-0.1028047204017639,-0.5669918060302734,-0.1294672489166259,-0.2784779667854309,0.0356592312455177,0.067576915025711
2023-11-30 19:48:23.281749200,11.344749267578123,0.172006219625473,-0.8847236633300781,-0.2845842838287353,-0.3643044829368591,-0.1347720474004745,0.0910952091217041
2023-11-30 19:48:23.300351200,11.363351318359374,0.1719446182250976,-1.0932350158691406,-0.6143097877502441,-0.4452440738677978,-0.2621373534202575,0.1259144991636276
2023-11-30 19:48:23.318953500,11.381953369140623,-0.2346622496843338,-0.9648075103759766,-0.9343607425689696,-0.5307651162147522,-0.2819904685020447,0.1775325834751129
2023-11-30 19:48:23.337555500,11.400555419921876,-0.5944477915763855,-0.9806623458862304,-1.124882459640503,-0.6107884049415588,-0.3192532062530517,0.2871828079223633
2023-11-30 19:48:23.356157400,11.419157470703125,0.0449035838246345,-2.3211708068847656,-1.313291072845459,-0.5808560252189636,-0.5397753715515137,0.4698313772678375
2023-11-30 19:48:23.374759400,11.437759521484375,1.2286078929901123,-3.7100753784179688,-1.6312124729156494,-0.4391354322433471,-0.7141773104667664,0.3824777007102966
2023-11-30 19:48:23.393361700,11.456361572265624,2.0994200706481934,-2.5426101684570312,-0.108668565750122,-0.1727983802556991,-0.6002510190010071,0.3061196208000183
2023-11-30 19:48:23.411963600,11.474963623046875,2.343047380447388,-0.878199577331543,-0.033442735671997,0.1558468788862228,-0.4783834815025329,0.1778380125761032
2023-11-30 19:48:23.430565600,11.493565673828124,2.0720014572143555,0.1716470718383789,0.660128116607666,0.4545597434043884,-0.4111883640289306,0.0660497546195983
2023-11-30 19:48:23.449167600,11.512167724609377,1.3690046072006226,0.660649299621582,1.0279713869094849,0.6488147377967834,-0.4130209386348724,-0.0151952616870403
2023-11-30 19:48:23.467769900,11.530769775390626,0.3134914040565491,0.3723840713500976,1.4282000064849854,0.5709294676780701,-0.362930029630661,-0.0915533602237701
2023-11-30 19:48:23.486371800,11.549371826171877,-1.3358650207519531,-0.5101518630981445,2.0047993659973145,0.3186423480510711,-0.2117410004138946,-0.1526398360729217
2023-11-30 19:48:23.504974000,11.56797412109375,-1.9860587120056152,-0.987548828125,2.351930618286133,0.1338557451963424,-0.1100320219993591,-0.1364519149065017
2023-11-30 19:48:23.523576000,11.586576171875,-1.3551939725875854,-0.686492919921875,2.1179122924804688,0.0553596206009388,-0.0727692693471908,-0.1175151094794273
2023-11-30 19:48:23.542178000,11.605177978515623,-0.3788922429084778,-0.3090963363647461,1.5711772441864014,0.0590248107910156,-0.1442404389381408,-0.1538615673780441
2023-11-30 19:48:23.560780000,11.623780029296874,0.4393303394317627,0.3421630859375,1.235504150390625,0.1329394429922104,-0.2511417865753174,-0.1581376194953918
2023-11-30 19:48:23.579382300,11.64238232421875,0.9467645287513732,1.3955078125,0.588871955871582,0.2227365672588348,-0.2880991101264953,-0.1416442692279815
2023-11-30 19:48:23.597984300,11.660984375,1.0040020942687988,2.3736581802368164,0.2081282138824463,0.2713003158569336,-0.2813795804977417,-0.0994945988059043
2023-11-30 19:48:23.616586500,11.67958642578125,0.6687946319580078,2.9901785850524902,-0.0924677848815918,0.2630536556243896,-0.3052033185958862,-0.0197767466306686
2023-11-30 19:48:23.635188500,11.6981884765625,0.1698977947235107,3.077404499053955,-0.390073299407959,0.2438113987445831,-0.3366628587245941,0.0318413265049457
2023-11-30 19:48:23.653790500,11.71679052734375,-0.1581626534461975,2.64377498626709,-0.3284432888031006,0.2230419963598251,-0.312228262424469,0.0501672700047493
2023-11-30 19:48:23.672392400,11.735392333984375,-0.4207720756530761,2.0334205627441406,-0.1991693973541259,0.1906661689281463,-0.2551124095916748,0.0645225942134857
2023-11-30 19:48:23.690994700,11.75399462890625,-0.6936532855033875,1.2409486770629885,-0.1396172046661377,0.1430187225341797,-0.2380081862211227,0.1033125072717666
2023-11-30 19:48:23.709596700,11.7725966796875,-1.033237099647522,0.316781997680664,-0.1331429481506347,0.0785724818706512,-0.3021489977836609,0.1622609496116638
2023-11-30 19:48:23.728198700,11.79119873046875,-1.327449083328247,-0.663090705871582,-0.0783586502075195,-0.007559451740235,-0.3711767196655273,0.2144898921251297
2023-11-30 19:48:23.746800600,11.809800537109377,-1.574404239654541,-1.4678478240966797,0.0173828601837158,-0.1211803033947944,-0.3699549734592438,0.2557232677936554
2023-11-30 19:48:23.765403000,11.82840283203125,-1.7886767387390137,-1.7290191650390625,0.0794386863708496,-0.2436586916446685,-0.3161988854408264,0.2746600806713104
2023-11-30 19:48:23.784004900,11.8470048828125,-1.8485318422317505,-1.0693845748901367,0.0664131641387939,-0.3145190179347992,-0.1912770271301269,0.2807687222957611
2023-11-30 19:48:23.802607000,11.865607177734375,-1.550156593322754,-0.5594158172607422,-0.2277882099151611,-0.2913061380386352,-0.036422811448574,0.28504478931427
2023-11-30 19:48:23.821209000,11.884208984375,-0.9490717053413392,-0.5448732376098633,-0.5315608978271484,-0.2027307450771331,0.0090866135433316,0.2795470058917999
2023-11-30 19:48:23.839811000,11.90281103515625,-0.5843756198883057,-0.7178020477294922,-0.7115495204925537,-0.1392008066177368,-0.0275652725249528,0.2737437784671783
2023-11-30 19:48:23.858413000,11.9214130859375,-0.8022074103355408,-0.9327678680419922,-0.890758752822876,-0.1471420526504516,-0.0019089524867013,0.2386190593242645
2023-11-30 19:48:23.877015300,11.940015380859377,-1.3825042247772217,-1.2862062454223633,-0.6668920516967773,-0.188069999217987,0.1129336282610893,0.1815031915903091
2023-11-30 19:48:23.895617300,11.9586171875,-1.9864377975463867,-1.4284172058105469,-0.2018516063690185,-0.2604574561119079,0.236022874712944,0.1427132785320282
2023-11-30 19:48:23.914219500,11.977219482421877,-2.392423629760742,-1.3031349182128906,-0.0585303306579589,-0.298331081867218,0.4675406217575073,0.2297615110874176
2023-11-30 19:48:23.932821500,11.995821533203124,-1.517151117324829,-1.2219209671020508,-0.8681244850158691,-0.2735910713672638,0.677067220211029,0.4481456875801086
2023-11-30 19:48:23.951423500,12.014423583984374,0.4465353190898895,-1.809431076049805,-2.1372501850128174,-0.2687041461467743,0.4996110200881958,0.4728856980800628
2023-11-30 19:48:23.970025500,12.033025390625,1.8084341287612915,-1.7203664779663086,-1.0536305904388428,-0.2680932879447937,0.1618028134107589,0.3965275883674621
2023-11-30 19:48:23.988627700,12.051627685546874,2.4995408058166504,-1.9032669067382808,-0.2679395675659179,-0.2070067971944809,0.0170278549194335,0.3601811528205871
2023-11-30 19:48:24.007229700,12.070229736328123,2.7505757808685303,-1.9119997024536133,0.2705953121185303,-0.1052978187799453,-0.1613446623086929,0.2172387838363647
2023-11-30 19:48:24.025831700,12.088831787109376,2.5640110969543457,-1.2751502990722656,1.3883602619171145,-0.0200821794569492,-0.1289688199758529,0.0541378892958164
2023-11-30 19:48:24.044433700,12.10743359375,1.982544183731079,-0.8400030136108398,1.6732728481292725,0.054443322122097,0.1352301836013794,-0.1031597927212715
2023-11-30 19:48:24.063036000,12.126035888671876,1.689582347869873,-0.3606634140014648,1.2553753852844238,0.1152243688702583,0.4040106832981109,-0.2473238706588745
2023-11-30 19:48:24.081638000,12.144637939453125,1.4563671350479126,0.2409992218017578,0.7167165279388428,0.1769217103719711,0.5765799880027771,-0.312686413526535
2023-11-30 19:48:24.100240100,12.163240234375,1.2746148109436035,0.7032947540283203,-0.1845524311065673,0.206548660993576,0.5787180066108704,-0.3019962608814239
2023-11-30 19:48:24.118842000,12.181842041015624,0.9234503507614136,1.0807151794433594,-0.9526042938232422,0.1674533039331436,0.3478111326694488,-0.2906952798366546
2023-11-30 19:48:24.137444000,12.200444091796877,0.3623820543289184,1.4469118118286133,-1.1851115226745603,0.0944549664855003,0.0662024691700935,-0.2986365258693695
2023-11-30 19:48:24.156046000,12.219046142578126,-0.2703070640563965,1.8391046524047847,-0.7822468280792236,0.064828023314476,-0.0043524117209017,-0.325514554977417
2023-11-30 19:48:24.174648300,12.2376484375,-0.5822045803070068,2.102768421173096,0.0413205623626709,0.0547487549483776,0.0692567974328994,-0.4009563624858856
2023-11-30 19:48:24.193250300,12.256250244140626,-0.7855111360549927,2.2355995178222656,0.7583327293395996,0.046807512640953,0.1990655660629272,-0.4675406217575073
2023-11-30 19:48:24.211852300,12.274852294921876,-0.7585621476173401,2.4332566261291504,1.215395450592041,0.0437531881034374,0.3646099269390106,-0.5072468519210815
2023-11-30 19:48:24.230454300,12.293454345703124,-0.3745001852512359,2.431945323944092,1.3721139430999756,0.0257326792925596,0.5261836647987366,-0.4873937368392944
2023-11-30 19:48:24.249056500,12.312056396484374,0.0406312048435211,2.2602052688598637,1.0337200164794922,-0.032604906708002,0.446465790271759,-0.456239640712738
2023-11-30 19:48:24.267658500,12.330658447265623,0.3005672991275787,1.932358741760254,0.6590261459350586,-0.0866664424538612,0.2112828493118286,-0.321849375963211
2023-11-30 19:48:24.286260500,12.349260498046876,0.6439456343650818,1.2761516571044922,-0.4567785263061523,-0.1282052397727966,-0.0654388889670372,-0.1425605714321136
2023-11-30 19:48:24.304862700,12.36786279296875,0.7567208409309387,0.6732769012451172,-1.350208044052124,-0.1526398360729217,-0.3082576394081116,-0.0530688762664794
2023-11-30 19:48:24.323464700,12.386464599609376,0.7038196325302124,0.2940807342529297,-1.7155005931854248,-0.1224020272493362,-0.4405098557472229,-0.0396298542618751
2023-11-30 19:48:24.342066700,12.405066650390625,0.3538218140602112,0.3883495330810547,-1.8141541481018064,-0.0463493652641773,-0.4344012141227722,-0.0567340664565563
2023-11-30 19:48:24.360669000,12.4236689453125,-0.2626973688602447,0.894953727722168,-1.5863869190216064,0.0431423261761665,-0.2199876755475998,-0.0274125561118125
2023-11-30 19:48:24.379271000,12.44227099609375,-0.7160178422927856,1.124527931213379,-1.5221924781799316,0.1103374511003494,0.0616209842264652,0.0028252496849745
2023-11-30 19:48:24.397873000,12.460872802734375,-0.6147910356521606,0.3780851364135742,-1.1810457706451416,0.1164461001753807,0.1450040340423584,0.0290924347937107
2023-11-30 19:48:24.416475100,12.47947509765625,-0.3342940211296081,-0.541956901550293,-1.067401647567749,0.0590248107910156,0.0503199845552444,0.0791833475232124
2023-11-30 19:48:24.435077000,12.4980771484375,-0.1237484961748123,-1.0484962463378906,-0.95552659034729,-0.0646753087639808,-0.116751529276371,0.0819322392344474
2023-11-30 19:48:24.453679000,12.51667919921875,-0.1421032100915908,-1.3729496002197266,-0.4666140079498291,-0.2183077931404113,-0.2025780379772186,0.0687986463308334
2023-11-30 19:48:24.472281000,12.535281005859376,-0.2660300731658935,-1.3209352493286133,-0.0590612888336181,-0.3887390792369842,-0.0804050788283348,0.1314122825860977
2023-11-30 19:48:24.490883300,12.55388330078125,-0.656212568283081,-0.8505229949951172,-0.4326202869415283,-0.5176315307617188,-0.0978147238492965,0.1790597438812255
2023-11-30 19:48:24.509485300,12.5724853515625,-0.2294472306966781,-1.2429685592651367,-0.7675631046295166,-0.5726093649864197,-0.4166861474514007,0.308563083410263
2023-11-30 19:48:24.528087300,12.59108740234375,0.572262167930603,-2.9966773986816406,-1.2931644916534424,-0.4916698038578033,-0.8003092408180237,0.4924333691596985
2023-11-30 19:48:24.546689300,12.609689208984374,1.463160753250122,-3.795674324035645,-1.5074708461761477,-0.2760345339775085,-0.8690314888954163,0.4145480990409851
2023-11-30 19:48:24.565291500,12.62829150390625,2.314607620239258,-2.993870735168457,-0.7198591232299805,0.033673919737339,-0.6332377195358276,0.2682459950447082
2023-11-30 19:48:24.583893500,12.6468935546875,2.504422903060913,-2.166672706604004,-0.3356118202209472,0.3898080885410309,-0.4692205190658569,0.036422811448574
2023-11-30 19:48:24.602495700,12.665495849609377,2.077784299850464,-1.030623435974121,0.781090259552002,0.6680569648742676,-0.3711767196655273,-0.1022434905171394
2023-11-30 19:48:24.621097700,12.68409765625,0.9355264902114868,-0.1606769561767578,1.17163348197937,0.7037925720214844,-0.3580431044101715,-0.252210795879364
2023-11-30 19:48:24.639699700,12.70269970703125,-0.6690781116485596,-0.2024259567260742,2.211498737335205,0.5568795800209045,-0.3595702946186065,-0.4256964027881622
2023-11-30 19:48:24.658301700,12.7213017578125,-1.7058541774749756,-0.7804164886474609,3.2884910106658936,0.3442986607551574,-0.3384954333305359,-0.409508466720581
2023-11-30 19:48:24.676904000,12.739904052734374,-2.102138996124268,-0.4524393081665039,3.1663615703582764,0.131717711687088,-0.2138790339231491,-0.171882078051567
2023-11-30 19:48:24.695506000,12.758505859375,-1.8249937295913696,0.3509597778320312,2.5146021842956543,-0.080252356827259,-0.0590248107910156,0.004657844081521
2023-11-30 19:48:24.714108000,12.77710791015625,-0.9647510051727296,1.0647716522216797,2.1235451698303223,-0.2375500351190567,0.0796414986252784,0.0516944304108619
2023-11-30 19:48:24.732710100,12.795710205078125,0.045688509941101,1.6782269477844238,1.3137485980987549,-0.307494044303894,0.1950949430465698,0.0687986463308334
2023-11-30 19:48:24.751312100,12.81431201171875,0.6223431825637817,2.53361177444458,0.2839069366455078,-0.2671769857406616,0.2176969349384308,0.048334676772356
2023-11-30 19:48:24.769914000,12.8329140625,1.0118141174316406,3.18214750289917,-0.4318239688873291,-0.1358410567045211,0.0897207632660865,0.0590248107910156
2023-11-30 19:48:24.788516000,12.85151611328125,1.045357584953308,3.3960351943969727,-1.163017749786377,0.0263435430824756,-0.2242637276649475,0.1213330179452896
2023-11-30 19:48:24.807118300,12.870118408203124,0.6976296901702881,3.0587024688720703,-1.6622073650360107,0.1772271394729614,-0.5739838480949402,0.1601229310035705
2023-11-30 19:48:24.825720300,12.88872021484375,0.2254295945167541,2.349462985992432,-1.596820831298828,0.2804632782936096,-0.6121628880500793,0.1436295807361602
2023-11-30 19:48:24.844322300,12.907322265625,-0.5243697166442871,1.7283954620361328,-0.9113543033599854,0.3320813775062561,-0.4368446767330169,0.0529161617159843
2023-11-30 19:48:24.862924300,12.92592431640625,-1.1822593212127686,1.0093021392822266,0.3147749900817871,0.3638463318347931,-0.2380081862211227,-0.0203876122832298
2023-11-30 19:48:24.881526500,12.944526611328126,-1.6398645639419556,-0.1300945281982422,0.8202488422393799,0.3482692837715149,-0.128052532672882,0.0394771359860897
2023-11-30 19:48:24.900128500,12.96312841796875,-1.9564449787139893,-1.4704160690307615,0.426748514175415,0.2270126193761825,-0.0764344558119773,0.1491273641586303
2023-11-30 19:48:24.918730800,12.981730712890624,-2.1524908542633057,-2.304612159729004,0.2185022830963134,0.0049632764421403,0.0567340664565563,0.1561523079872131
2023-11-30 19:48:24.937332700,13.000332763671874,-2.1891355514526367,-1.589834213256836,0.3978960514068603,-0.1621082425117492,0.0918587893247604,0.1439350098371505
2023-11-30 19:48:24.955934700,13.018934814453123,-1.6992921829223633,-0.4285383224487304,0.102874755859375,-0.2063959389925003,0.0634535774588584,0.1589011996984481
2023-11-30 19:48:24.974536700,13.03753662109375,-1.2047834396362305,0.0071735382080078,-0.1891870498657226,-0.1599702090024948,0.0176387205719947,0.1750891208648681
2023-11-30 19:48:24.993138700,13.056138671875,-0.95274156332016,-0.3831443786621094,-0.5184612274169922,-0.096440277993679,0.0310777463018894,0.1677587330341339
2023-11-30 19:48:25.011741000,13.074740966796876,-1.1658518314361572,-0.9869022369384766,-0.5409867763519287,-0.061010118573904,0.1486692130565643,0.1323285847902298
2023-11-30 19:48:25.030343000,13.093343017578125,-1.499528884887695,-1.310102462768555,-0.4859051704406738,-0.0765871703624725,0.3291797637939453,0.1027016416192054
2023-11-30 19:48:25.048945200,13.111945068359375,-1.713308334350586,-1.413980484008789,-0.6319277286529541,-0.1236237585544586,0.4253909587860107,0.086513727903366
2023-11-30 19:48:25.067547000,13.130546875,-1.7766133546829224,-1.262040138244629,-0.5926392078399658,-0.1443931609392166,0.4583776593208313,0.1057559624314308
2023-11-30 19:48:25.086149000,13.149149169921875,-1.356612205505371,-0.9118251800537108,-0.3748588562011719,-0.0545960403978824,0.5267944931983948,0.2523635029792785
2023-11-30 19:48:25.104751000,13.167751220703124,0.2229728698730468,-1.2330894470214844,-0.960052490234375,0.0935386717319488,0.2971093654632568,0.3461312651634216
2023-11-30 19:48:25.123353300,13.186353271484377,1.582145929336548,-1.9049797058105469,-0.8127305507659912,0.1705076247453689,-0.0287870019674301,0.2538906633853912
2023-11-30 19:48:25.141955300,13.204955322265626,2.1879749298095703,-2.7038583755493164,0.1386432647705078,0.1057559624314308,-0.0819322392344474,0.1573740392923355
2023-11-30 19:48:25.160557300,13.223557373046877,1.8241050243377688,-2.9577951431274414,0.5021634101867676,0.0107664912939071,-0.1173623949289321,0.0373391099274158
2023-11-30 19:48:25.179159300,13.2421591796875,1.3459985256195068,-1.687517166137695,1.5602049827575684,-0.0640644431114196,-0.0141262477263808,-0.0585666596889495
2023-11-30 19:48:25.197761500,13.260761474609374,0.93730890750885,-0.5799379348754883,1.7727515697479248,-0.0958294123411178,0.2384663373231887,-0.1285106837749481
2023-11-30 19:48:25.216363500,13.279363525390623,0.8344249725341797,-0.1458930969238281,1.2276251316070557,-0.0555123351514339,0.4846448302268982,-0.1850156635046005
2023-11-30 19:48:25.234965500,13.297965576171874,1.1123809814453125,0.1941003799438476,0.3664817810058594,0.0187077336013317,0.6074286699295044,-0.2216675579547882
2023-11-30 19:48:25.253567700,13.316567626953123,1.188950777053833,0.421116828918457,-0.4427645206451416,0.1002581790089607,0.5732202529907227,-0.2302196621894836
2023-11-30 19:48:25.272169700,13.335169677734376,1.1258747577667236,0.5648431777954102,-1.1067590713500977,0.152487114071846,0.3890444934368133,-0.2189186662435531
2023-11-30 19:48:25.290771700,13.353771728515625,0.7928154468536377,0.6543083190917969,-1.4252846240997314,0.1815031915903091,0.1975383907556533,-0.2033416181802749
2023-11-30 19:48:25.309373700,13.372373779296876,0.3652650415897369,0.9090242385864258,-1.0633490085601809,0.1845575273036956,0.1547778695821762,-0.2137263119220733
2023-11-30 19:48:25.327976000,13.390975830078125,-0.1820610165596008,1.2202777862548828,-0.070467472076416,0.1726456582546234,0.1300378441810608,-0.2683987021446228
2023-11-30 19:48:25.346578000,13.409577880859375,-0.3908252716064453,1.5173892974853516,0.8248133659362793,0.1314122825860977,0.1773798614740371,-0.3099375069141388
2023-11-30 19:48:25.365180000,13.428179931640624,-0.597457230091095,1.8967437744140625,1.3280911445617676,0.0834593996405601,0.2796997129917145,-0.3551415205001831
2023-11-30 19:48:25.383782000,13.446781982421877,-0.5088224411010742,2.2946720123291016,1.715021729469299,0.075212724506855,0.3862956166267395,-0.3597230017185211
2023-11-30 19:48:25.402384100,13.465384033203126,-0.1464828550815582,2.549646377563477,1.6156401634216309,0.0547487549483776,0.4131736755371094,-0.3184896111488342
2023-11-30 19:48:25.420986000,13.483986083984377,0.075177788734436,2.513891220092773,1.1372313499450684,-0.0032833982259035,0.2751182317733764,-0.2790888547897339
2023-11-30 19:48:25.439588000,13.502588134765626,0.2421133518218994,2.2344369888305664,0.5189695358276367,-0.0689513608813285,0.1077412739396095,-0.2076176702976226
2023-11-30 19:48:25.458190300,13.5211904296875,0.3774006366729736,1.936756610870361,-0.3216698169708252,-0.1004109010100364,-0.036422811448574,-0.1089630052447319
2023-11-30 19:48:25.476792300,13.539792236328124,0.4954087138175964,1.5881328582763672,-1.1097512245178225,-0.1028543561697006,-0.1259144991636276,-0.0423787422478199
2023-11-30 19:48:25.495394300,13.558394287109374,0.4887544512748718,1.0833454132080078,-1.5030450820922852,-0.0884990319609642,-0.2254854589700698,-0.0005345066892914
2023-11-30 19:48:25.513996300,13.576996337890623,0.3451473712921142,0.5740261077880859,-1.7842423915863037,-0.0967457070946693,-0.2945131957530975,0.0519998632371425
2023-11-30 19:48:25.532598500,13.5955986328125,-0.1574447453022003,0.4543514251708984,-1.9460790157318115,-0.1300378441810608,-0.2312886714935302,0.0907897800207138
2023-11-30 19:48:25.551200500,13.614200439453125,-0.5685606002807617,0.2423963546752929,-1.7727515697479248,-0.143782302737236,-0.109115719795227,0.1103374511003494
2023-11-30 19:48:25.569802500,13.632802490234376,-0.5660238862037659,-0.3582162857055664,-1.473615646362305,-0.0955239832401275,-0.0086284652352333,0.1256090700626373
2023-11-30 19:48:25.588404700,13.65140478515625,-0.2573854327201843,-1.0486412048339844,-1.362121343612671,-0.0405461490154266,0.0374918244779109,0.1222493126988411
2023-11-30 19:48:25.607006700,13.6700068359375,-0.2025372982025146,-1.3882331848144531,-1.2785277366638184,-0.0646753087639808,0.0387135557830333,0.0993418842554092
2023-11-30 19:48:25.625608700,13.688608642578124,-0.5780879259109497,-1.4939451217651367,-1.2178118228912354,-0.2005927264690399,0.1059086844325065,0.0862082913517952
