time,seconds_elapsed,z,y,x,gyro_x,gyro_y,gyro_z
2023-11-30 19:51:01.044413200,0.0494130859375,0.0,0.0,0.0,0.09414953738451,-0.0477238111197948,0.0302378069609403
2023-11-30 19:51:01.063015000,0.068014892578125,-0.1299996376037597,0.050999641418457,0.0670002698898315,0.0770453214645385,0.0066431546583771,0.0015271619195118
2023-11-30 19:51:01.081616600,0.08661669921875,0.0148134231567382,0.0138711929321289,-0.0530533790588378,0.0538324601948261,0.0182495843619108,-0.0192422401160001
2023-11-30 19:51:01.100218400,0.10521826171875,0.1440396308898925,-0.0835905075073242,-0.1105861663818359,0.0501672700047493,0.0133626665920019,-0.0394007787108421
2023-11-30 19:51:01.118820000,0.123820068359375,0.0515518188476562,-0.0795021057128906,-0.0680139064788818,0.0519998632371425,0.0365755297243595,-0.0681114196777343
2023-11-30 19:51:01.137421800,0.142421875,-0.1086258888244628,-0.0405607223510742,0.0032062530517578,0.0559704862534999,0.1242346242070198,-0.1212566569447517
2023-11-30 19:51:01.156023600,0.1610234375,-0.1609129905700683,-0.0617218017578125,0.0651396512985229,0.0489455386996269,0.2412152290344238,-0.1750127524137497
2023-11-30 19:51:01.174625300,0.179625244140625,-0.1941814422607422,-0.056441307067871,0.0157482624053955,-0.0130572346970438,0.3603338599205017,-0.1997527778148651
2023-11-30 19:51:01.193227000,0.19822705078125,-0.2453770637512207,-0.027409553527832,-0.0556073188781738,-0.0921642258763313,0.385990172624588,-0.2153298407793045
2023-11-30 19:51:01.211828700,0.216828857421875,-0.3229155540466308,-0.011702537536621,-0.0137511491775512,-0.1514181047677993,0.3847684562206268,-0.2174678593873977
2023-11-30 19:51:01.230430500,0.235430419921875,-0.1522145271301269,0.0911397933959961,-0.0236865282058715,-0.1987601220607757,0.3429242074489593,-0.192422404885292
2023-11-30 19:51:01.249032200,0.2540322265625,0.0987091064453125,0.2420597076416015,0.0118629932403564,-0.2815323173999786,0.3038288652896881,-0.1191186308860778
2023-11-30 19:51:01.267634200,0.27263427734375,0.3941054344177246,0.1428499221801757,-0.0587290525436401,-0.3643044829368591,0.2720639109611511,-0.024129157885909
2023-11-30 19:51:01.286235600,0.291235595703125,0.5156383514404297,0.2308568954467773,-0.2069215774536132,-0.3139081299304962,0.1159879490733146,0.0876590982079505
2023-11-30 19:51:01.304837600,0.309837646484375,0.818511962890625,0.5294890403747559,-0.2522798776626587,-0.1556941568851471,-0.1152243688702583,0.2196058928966522
2023-11-30 19:51:01.323439400,0.328439453125,1.145348072052002,0.7093892097473145,-0.3235049247741699,-0.0277179889380931,-0.3100902438163757,0.3515526950359344
2023-11-30 19:51:01.342041000,0.347041015625,1.0513272285461426,0.6237907409667969,-0.4016982316970825,-0.0384081229567527,-0.3870591819286346,0.4462367296218872
2023-11-30 19:51:01.360642800,0.365642822265625,0.4460706710815429,0.3270778656005859,-0.4529097080230713,-0.1462257504463195,-0.3992764949798584,0.4917461574077606
2023-11-30 19:51:01.379244500,0.38424462890625,-0.1052141189575195,0.025954246520996,-0.3207075595855713,-0.2561814188957214,-0.4029416739940643,0.5112938284873962
2023-11-30 19:51:01.397846300,0.40284619140625,-0.3996787071228027,-0.1591291427612304,-0.1975113153457641,-0.3044397234916687,-0.4136318266391754,0.5250383019447327
2023-11-30 19:51:01.416448000,0.421447998046875,-0.4005942344665527,-0.2036209106445312,-0.1301872730255127,-0.307494044303894,-0.4356229603290558,0.5491674542427063
2023-11-30 19:51:01.435049700,0.4400498046875,-0.3540115356445312,-0.2123851776123047,-0.246030569076538,-0.2943604588508606,-0.5049561262130737,0.5632173418998718
2023-11-30 19:51:01.453651500,0.4586513671875,-0.3305544853210449,-0.1783218383789062,-0.4495277404785156,-0.2787834107875824,-0.5703186392784119,0.5580250024795532
2023-11-30 19:51:01.472253200,0.477253173828125,-0.345517635345459,-0.1555738449096679,-0.6148350238800049,-0.2662606835365295,-0.5871174335479736,0.5287034511566162
2023-11-30 19:51:01.490855000,0.49585498046875,-0.3674135208129883,-0.1987943649291992,-0.7803139686584473,-0.2949713170528412,-0.4591412544250488,0.4926624298095703
2023-11-30 19:51:01.509456600,0.51445654296875,-0.4201078414916992,-0.2801923751831054,-0.943735122680664,-0.3740783333778381,-0.2282343506813049,0.4105011224746704
2023-11-30 19:51:01.528058400,0.533058349609375,-0.8006975650787354,-0.2837581634521484,-1.121546506881714,-0.4403571486473083,-0.0608574040234088,0.3014617562294006
2023-11-30 19:51:01.546660000,0.55166015625,-0.9299261569976808,-0.3309831619262695,-1.0116167068481443,-0.4657080471515655,0.0481819584965705,0.2134972363710403
2023-11-30 19:51:01.565262000,0.570261962890625,-1.0417237281799316,-0.2096014022827148,-1.1142735481262207,-0.4018726646900177,0.1098792999982833,0.1270598769187927
2023-11-30 19:51:01.583863800,0.58886376953125,-0.9605963230133056,-0.0877876281738281,-1.0985126495361328,-0.2326631247997284,0.215253472328186,-0.0183259434998035
2023-11-30 19:51:01.602465500,0.607465576171875,-0.78680419921875,-0.0758829116821289,-0.8763980865478516,-0.0289397183805704,0.6529380679130554,-0.1918115466833114
2023-11-30 19:51:01.621067300,0.6260673828125,-0.7195920944213867,-0.2173290252685547,-0.9199528694152832,0.0245109498500823,1.0606902837753296,-0.4630354940891266
2023-11-30 19:51:01.639669000,0.6446689453125,-2.657878398895264,-0.5243463516235352,-1.680757761001587,0.1476002037525177,-0.1185841262340545,-0.5962040424346924
2023-11-30 19:51:01.658270700,0.663270751953125,-1.7977070808410645,-0.2072334289550781,-2.9452569484710693,0.6317105293273926,-1.1378120183944702,-0.6264418363571167
2023-11-30 19:51:01.676872400,0.68187255859375,0.7501316070556641,0.3690099716186523,-2.5632436275482178,1.0926079750061035,-0.9918153285980223,-0.7162389755249023
2023-11-30 19:51:01.695474200,0.70047412109375,0.9811725616455078,0.2471647262573242,-0.1312510967254638,1.25479257106781,-0.2468657344579696,-0.8286380767822266
2023-11-30 19:51:01.714076000,0.719075927734375,0.1358799934387207,-0.4141511917114258,0.8987053632736206,0.9912044405937196,0.4180605709552765,-0.960890293121338
2023-11-30 19:51:01.732677600,0.737677734375,-1.1190781593322754,-0.7450799942016602,1.3224599361419678,0.5138136148452759,0.6343067288398743,-0.9862411618232728
2023-11-30 19:51:01.751279400,0.756279296875,-1.6519248485565186,-0.6649141311645508,1.2322527170181274,0.057192213833332,0.5109120011329651,-0.7638863921165466
2023-11-30 19:51:01.769881000,0.774881103515625,-1.025994062423706,-0.6222858428955078,0.2434086799621582,-0.2980256676673889,0.1660788655281067,-0.3677406013011932
2023-11-30 19:51:01.788482800,0.79348291015625,-0.3636288642883301,-0.4839076995849609,-0.7027075290679932,-0.5533671379089355,-0.2673296928405761,0.0543669648468494
2023-11-30 19:51:01.807084800,0.812084716796875,-0.0165009498596191,-0.1724023818969726,-1.2205393314361572,-0.7204386591911316,-0.7425824999809265,0.3631591200828552
2023-11-30 19:51:01.825686500,0.8306865234375,0.0513515472412109,0.1568832397460937,-1.0744891166687012,-0.8804852366447449,-0.9948696494102478,0.5427533388137817
2023-11-30 19:51:01.844288300,0.849288330078125,0.1467299461364746,0.2716455459594726,-1.096181869506836,-0.9137773513793944,-1.255708932876587,0.5381718873977661
2023-11-30 19:51:01.862890000,0.867889892578125,0.3385796546936035,0.1323766708374023,-0.9716718196868896,-0.7723621726036072,-1.313435673713684,0.3448331654071808
2023-11-30 19:51:01.881491700,0.88649169921875,1.3574986457824707,-0.1894569396972656,-0.8309742212295532,-0.6297252178192139,-1.0657299757003784,0.0998763889074325
2023-11-30 19:51:01.900093400,0.905093505859375,1.5077104568481443,-0.2117538452148437,-0.9967701435089112,-0.6227002739906311,-0.7431933879852295,-0.1398880332708358
2023-11-30 19:51:01.918695200,0.923695068359375,0.5578479766845703,0.1070365905761718,-1.6338621377944946,-0.6572141647338867,-0.5663480162620544,-0.3561341762542724
2023-11-30 19:51:01.937297000,0.942296875,-0.2042038440704345,0.2305288314819336,-1.890220046043396,-0.5817723274230957,-0.331165075302124,-0.5161807537078857
2023-11-30 19:51:01.955898600,0.960898681640625,-0.4594707489013672,-0.0114259719848632,-2.177906036376953,-0.3838521540164947,-0.1827249228954315,-0.7422007322311401
2023-11-30 19:51:01.974500400,0.979500244140625,-0.0638403892517089,-0.6985435485839844,-2.030858993530273,-0.0857501402497291,-0.0910952091217041,-0.9786053895950316
2023-11-30 19:51:01.993102000,0.99810205078125,0.1422877311706543,-1.1305046081542969,-1.3767061233520508,0.3012326955795288,0.0952185466885566,-1.202792763710022
2023-11-30 19:51:02.011703800,1.016703857421875,-0.038625955581665,-1.1337776184082031,-0.7270022630691528,0.7031817436218262,0.2164752036333084,-1.3371829986572266
2023-11-30 19:51:02.030305500,1.035305419921875,-0.2705137729644775,-0.501805305480957,-0.2039202451705932,1.0758092403411863,0.1214857324957847,-1.4172062873840332
2023-11-30 19:51:02.048907500,1.053907470703125,-0.5700922012329102,0.5584688186645508,0.0652156472206115,1.3980404138565063,-0.0012980876490473,-1.4669917821884155
2023-11-30 19:51:02.067509200,1.07250927734375,-0.7347826957702637,1.2213726043701172,0.4572705924510956,1.6216169595718384,0.0258853957056999,-1.5112794637680054
2023-11-30 19:51:02.086110700,1.09111083984375,-0.9461891651153564,1.361778736114502,0.7364966869354248,1.5675554275512695,0.2464075833559036,-1.6756020784378052
2023-11-30 19:51:02.104712700,1.109712646484375,-1.475532054901123,1.016195297241211,1.511754274368286,1.1848485469818115,0.6926442980766296,-1.921475172042847
2023-11-30 19:51:02.123314400,1.128314453125,-2.2254116535186768,0.1754522323608398,2.428426742553711,0.6201041340827942,1.1856122016906738,-2.100764036178589
2023-11-30 19:51:02.141916200,1.146916259765625,-2.004922866821289,-0.9190244674682616,2.837109088897705,0.0602465383708477,1.4797435998916626,-2.070220708847046
2023-11-30 19:51:02.160518000,1.165517822265625,-1.0032908916473389,-1.6633062362670898,2.597574472427368,-0.3536143600940704,1.4259874820709229,-1.8078542947769165
2023-11-30 19:51:02.179119600,1.18411962890625,0.0640897750854492,-1.6688880920410156,2.004077196121216,-0.548480212688446,1.4537818431854248,-1.423620343208313
2023-11-30 19:51:02.197721300,1.202721435546875,0.1385154724121093,-0.5509910583496094,1.3765417337417605,-0.5555051565170288,1.44584059715271,-1.0980294942855835
2023-11-30 19:51:02.216323000,1.221322998046875,-0.2681055068969726,0.4629735946655273,1.234591007232666,-0.4773144721984863,1.5655701160430908,-0.8414662480354309
2023-11-30 19:51:02.234924800,1.2399248046875,-0.8258681297302246,0.8944625854492188,0.996113657951355,-0.3960694372653961,1.4953206777572632,-0.6569850444793701
2023-11-30 19:51:02.253526500,1.258526611328125,-1.286233901977539,0.9593896865844728,0.6136157512664795,-0.3835467100143432,1.2641083002090454,-0.5406153202056885
2023-11-30 19:51:02.272128300,1.277128173828125,-1.6412663459777832,1.1514835357666016,0.3078999519348144,-0.3963748812675476,1.0609958171844482,-0.4810560047626495
2023-11-30 19:51:02.290730000,1.29572998046875,-1.788607120513916,1.3734025955200195,0.1434323787689209,-0.4046215713024139,0.9611193537712096,-0.4657844007015228
2023-11-30 19:51:02.309331700,1.314331787109375,-1.6477012634277344,1.436418533325195,0.1826741695404052,-0.4021781086921692,0.92782723903656,-0.4547888338565826
2023-11-30 19:51:02.327933400,1.332933349609375,-1.3776473999023438,1.3429651260375977,0.1949789524078369,-0.3869064748287201,0.8911753296852112,-0.4636463820934295
2023-11-30 19:51:02.346535400,1.351535400390625,-1.0587129592895508,1.19962739944458,0.2149055004119873,-0.3432296514511108,0.8795689344406128,-0.4917461574077606
2023-11-30 19:51:02.365137200,1.37013720703125,-0.6738693714141846,0.9633440971374512,0.5391232967376709,-0.2864192128181457,0.9574542045593262,-0.5054906010627747
2023-11-30 19:51:02.383739000,1.38873876953125,-0.2827115058898926,0.5599470138549805,0.8525071144104004,-0.256792277097702,1.0866520404815674,-0.4926624298095703
2023-11-30 19:51:02.402340600,1.407340576171875,0.0096683502197265,0.073495864868164,1.111517071723938,-0.2781725525856018,1.232037901878357,-0.4471530318260193
2023-11-30 19:51:02.420942300,1.4259423828125,0.0991225242614746,-0.3231058120727539,1.334812045097351,-0.3343721032142639,1.3334414958953855,-0.3851502537727356
2023-11-30 19:51:02.439544000,1.4445439453125,0.017031192779541,-0.5239696502685547,1.4817559719085691,-0.3884336352348327,1.3875030279159546,-0.3326158821582794
2023-11-30 19:51:02.458145800,1.463145751953125,-0.1359968185424804,-0.6360311508178711,1.6901034116744995,-0.3615556061267853,1.4873794317245483,-0.2797760665416717
2023-11-30 19:51:02.476747500,1.48174755859375,0.356180191040039,-1.205367088317871,1.9114253520965576,-0.2173915058374405,1.472718596458435,-0.2648098766803741
2023-11-30 19:51:02.495349200,1.500349365234375,1.8188400268554688,-1.728485107421875,1.978439688682556,0.1598175019025802,1.2344813346862793,-0.3112356066703796
2023-11-30 19:51:02.513951000,1.518950927734375,2.7354063987731934,-0.8840560913085938,2.0597376823425293,0.6100248694419861,0.8557451963424683,-0.3652971386909485
2023-11-30 19:51:02.532552700,1.537552734375,3.634514808654785,-0.536677360534668,1.921483278274536,0.8449023365974426,0.566500723361969,-0.3964512348175049
2023-11-30 19:51:02.551154400,1.556154541015625,3.1855101585388184,-0.2915401458740234,1.3456077575683594,0.7694605588912964,0.4626537263393402,-0.4007273018360138
2023-11-30 19:51:02.569756200,1.574756103515625,2.008490562438965,0.2472085952758789,0.8129041194915771,0.4533380270004272,0.3844630122184753,-0.3695732057094574
2023-11-30 19:51:02.588358100,1.593358154296875,0.8690462112426758,0.7629904747009277,0.3917244672775268,-0.022220205515623,0.3279580175876617,-0.3268126547336578
2023-11-30 19:51:02.606959600,1.611959716796875,0.1538777351379394,1.311668872833252,0.2561864852905273,-0.4782307744026184,0.1514181047677993,-0.2577849328517914
2023-11-30 19:51:02.625561300,1.630561279296875,0.1425909996032714,1.690579891204834,0.3538931608200073,-0.6929497122764587,-0.0962875634431839,-0.146302118897438
2023-11-30 19:51:02.644163300,1.649163330078125,0.8487958908081055,2.0394887924194336,0.3941165208816528,-0.5985711216926575,-0.3134499788284302,-0.0430659651756286
2023-11-30 19:51:02.662765000,1.66776513671875,1.7748141288757324,2.596834182739258,0.6556353569030762,-0.2687041461467743,-0.497320294380188,0.1087339296936988
2023-11-30 19:51:02.681366800,1.68636669921875,2.009832859039306,3.182684898376465,0.729403018951416,0.1811977624893188,-0.6659189462661743,0.3704894781112671
2023-11-30 19:51:02.699968500,1.704968505859375,2.717841148376465,3.51639175415039,0.6567459106445312,0.5645154118537903,-0.4026362597942352,0.6368265151977539
2023-11-30 19:51:02.718570200,1.7235703125,2.1829614639282227,3.270575523376465,0.6521217823028564,0.7975603342056274,-0.2826013267040252,0.8142827749252319
2023-11-30 19:51:02.737172000,1.742171875,1.3437995910644531,2.589373588562012,1.0768053531646729,0.8626174330711365,-0.5171734094619751,0.8894191384315491
2023-11-30 19:51:02.755773700,1.760773681640625,0.5727262496948242,2.015064239501953,1.4874248504638672,0.848567545413971,-0.7960331439971924,0.9233221411705016
2023-11-30 19:51:02.774375400,1.77937548828125,-0.0833668708801269,1.5305423736572266,1.3545881509780884,0.8580359220504761,-1.1118502616882324,0.916602611541748
2023-11-30 19:51:02.792977200,1.79797705078125,-0.3613185882568359,1.174875259399414,1.132811427116394,0.9389755129814148,-1.4423280954360962,0.8991929292678833
2023-11-30 19:51:02.811579000,1.816578857421875,-0.3107690811157226,1.0285377502441406,0.7622625231742859,0.9844849705696106,-1.6946152448654177,0.9682206511497498
2023-11-30 19:51:02.830180600,1.8351806640625,-0.1035690307617187,0.9168949127197266,0.3650386929512024,0.8519272804260254,-2.1347432136535645,1.1365139484405518
2023-11-30 19:51:02.848782300,1.8537822265625,-0.1731901168823242,-0.0646543502807617,0.1769472360610962,0.6509527564048767,-2.703763961791992,1.3750566244125366
2023-11-30 19:51:02.867384000,1.872384033203125,-0.1595230102539062,-0.3733401298522949,0.3276103734970093,0.3830885887145996,-2.971933603286743,1.8185445070266724
2023-11-30 19:51:02.885986000,1.890986083984375,-0.2600536346435547,0.4345636367797851,0.0038486719131469,-0.114460788667202,-2.753243923187256,2.403141975402832
2023-11-30 19:51:02.904587500,1.90958740234375,0.0222821235656738,0.5570888519287109,0.3504074811935425,-0.6902008652687073,-2.507981777191162,3.054018497467041
2023-11-30 19:51:02.923189500,1.928189453125,0.5131392478942871,0.0013689994812011,0.8126535415649414,-0.7693078517913818,-3.000949621200561,3.149618864059448
2023-11-30 19:51:02.941791200,1.946791259765625,1.1488261222839355,-0.2187957763671875,2.0077192783355717,0.3241401314735412,-3.3980116844177246,2.305098295211792
2023-11-30 19:51:02.960393000,1.96539306640625,3.3034138679504395,0.9754314422607422,5.355281352996826,2.0418918132781982,-2.471635341644287,0.9095776677131652
2023-11-30 19:51:02.978994700,1.98399462890625,8.082515716552734,-0.8107767105102539,8.811210632324219,2.773097038269043,-0.8876628875732422,0.2257145345211029
2023-11-30 19:51:02.997596400,2.002596435546875,7.473203182220459,-4.355327129364014,8.731842041015625,2.423987865447998,-0.4191296100616455,0.5797106623649597
2023-11-30 19:51:03.016198100,2.0211982421875,3.795249938964844,-5.1744818687438965,2.593111515045166,1.4414118528366089,-1.0416008234024048,0.9144645929336548
2023-11-30 19:51:03.034799900,2.0397998046875,0.1683669090270996,-4.032702445983887,-1.3155663013458252,0.6613374948501587,-0.6381246447563171,0.7990111112594604
2023-11-30 19:51:03.053401600,2.058401611328125,-3.2277188301086426,-2.7697501182556152,-0.9731550812721252,0.3730092942714691,-0.0287870019674301,0.5714640021324158
2023-11-30 19:51:03.072003300,2.07700341796875,-4.146672248840332,-2.0581445693969727,-0.2489559650421142,0.3110065162181854,0.021609341725707,0.6417134404182434
2023-11-30 19:51:03.090605000,2.09560498046875,-3.2302489280700684,-1.1471405029296875,-1.3403141498565674,0.0917060747742652,-0.1677587330341339,0.7391464114189148
2023-11-30 19:51:03.109206800,2.114206787109375,-3.2966647148132324,0.077242374420166,-0.8482232093811035,-0.2635118067264557,-0.1338557451963424,0.7538071274757385
2023-11-30 19:51:03.127808500,2.13280859375,-3.241624355316162,0.3705606460571289,0.7919614911079407,-0.5811614990234375,-0.0095447618514299,0.7446441650390625
2023-11-30 19:51:03.146410200,2.15141015625,-2.5409326553344727,0.0554718971252441,2.0113813877105717,-0.7103593945503235,0.1135444939136505,0.7052434086799622
2023-11-30 19:51:03.165012000,2.170011962890625,-1.9696807861328125,0.1219568252563476,2.3582258224487305,-0.5869646668434143,0.0707839578390121,0.6872228980064392
2023-11-30 19:51:03.183613700,2.18861376953125,-1.3306350708007812,0.8548893928527832,2.5677154064178467,-0.330706924200058,-0.0797942131757736,0.7486147880554199
2023-11-30 19:51:03.202215400,2.20721533203125,-0.6274523735046387,1.532801628112793,2.394039869308472,-0.2656498253345489,-0.128052532672882,0.9327905178070068
2023-11-30 19:51:03.220817400,2.2258173828125,-0.923431396484375,1.9207611083984373,2.07399320602417,-0.576274573802948,-0.1433241516351699,1.0906990766525269
2023-11-30 19:51:03.239419000,2.2444189453125,-2.370227813720703,2.0250473022460938,1.7979347705841064,-1.04786217212677,-0.1442404389381408,1.2486076354980469
2023-11-30 19:51:03.258020900,2.263020751953125,-3.603881359100342,1.5097713470458984,1.9106979370117188,-1.2583050727844238,-0.057192213833332,1.4575233459472656
2023-11-30 19:51:03.276622600,2.28162255859375,-2.180375576019287,0.5994358062744141,1.6843317747116089,-1.4137701988220217,-0.0501672700047493,1.7150028944015503
2023-11-30 19:51:03.295224300,2.300224365234375,0.3712248802185058,-0.846919059753418,1.5169554948806765,-1.7488294839859009,-0.5568795800209045,1.7641774415969849
2023-11-30 19:51:03.313826000,2.318825927734375,1.7305855751037598,-1.891010284423828,1.883381724357605,-1.9052108526229856,-1.2795326709747314,1.5473204851150513
2023-11-30 19:51:03.332427800,2.337427734375,2.8876876831054688,-1.994280815124512,2.913048267364502,-1.6715551614761353,-1.80121111869812,1.3698642253875732
2023-11-30 19:51:03.351029500,2.356029541015625,5.0234904289245605,-2.251938819885254,2.3979485034942627,-1.319697022438049,-2.4612505435943604,1.1786636114120483
2023-11-30 19:51:03.369631200,2.37463134765625,6.690561771392822,-3.262392997741699,0.9770297408103944,-1.0500001907348633,-2.479271173477173,0.991433560848236
2023-11-30 19:51:03.388233000,2.39323291015625,7.558529376983643,-3.82816219329834,-0.3174586296081543,-0.9681442975997924,-1.6655992269515991,0.776714563369751
2023-11-30 19:51:03.406834700,2.411834716796875,6.156075954437256,-2.9886579513549805,-1.3237154483795166,-1.068937063217163,-0.9799034595489502,0.4434878230094909
2023-11-30 19:51:03.425436400,2.4304365234375,4.328632354736328,-1.0679330825805664,-1.7397676706314087,-1.2231804132461548,-0.4139372408390045,0.0946840420365333
2023-11-30 19:51:03.444038100,2.4490380859375,2.470702171325684,1.093062400817871,-1.608196496963501,-1.3490184545516968,0.2635118067264557,-0.1511890292167663
2023-11-30 19:51:03.462639900,2.467639892578125,1.2628898620605469,2.729607582092285,-2.029268264770508,-1.3740639686584473,1.074129343032837,-0.2251036763191223
2023-11-30 19:51:03.481241600,2.48624169921875,0.6192607879638672,3.7325592041015625,-2.716869592666626,-1.2741875648498535,1.8813871145248413,-0.1004872545599937
2023-11-30 19:51:03.499843300,2.50484326171875,0.7626118659973145,4.097242832183838,-3.831445693969727,-1.1449897289276123,2.45987606048584,0.0888808220624923
2023-11-30 19:51:03.518445000,2.523445068359375,1.120114803314209,4.0016303062438965,-4.738033294677734,-1.0503056049346924,2.5350124835968018,0.1811214089393615
2023-11-30 19:51:03.537046800,2.542046875,1.1958696842193604,3.628244876861572,-5.08139705657959,-1.0023527145385742,2.0796127319335938,0.1536324918270111
2023-11-30 19:51:03.555648800,2.560648681640625,0.818831205368042,3.428802490234375,-5.009248733520508,-0.8435279130935669,1.383226990699768,0.1233946830034256
2023-11-30 19:51:03.574250200,2.579250244140625,0.5707070827484131,3.231114387512207,-4.548450946807861,-0.5787180066108704,0.5661953091621399,0.1615737378597259
2023-11-30 19:51:03.592852000,2.59785205078125,0.832836389541626,2.8231019973754883,-4.657747745513916,-0.3368155658245086,-0.2306778132915496,0.2031125426292419
2023-11-30 19:51:03.611454000,2.616453857421875,0.4099555015563965,2.9786911010742188,-4.34466028213501,-0.0298560168594121,-0.755105197429657,0.3026835024356842
2023-11-30 19:51:03.630055400,2.635055419921875,0.0859146118164062,3.1287765502929688,-4.009833335876465,0.4038579761981964,-1.2404372692108154,0.4230238497257232
2023-11-30 19:51:03.648657400,2.653657470703125,0.6191132068634033,2.569207191467285,-3.7530553340911865,0.8232166767120361,-1.746233344078064,0.5589412450790405
2023-11-30 19:51:03.667259100,2.672259033203125,0.7859632968902588,1.7262201309204102,-3.497630834579468,1.1323142051696775,-1.94965136051178,0.6722567081451416
2023-11-30 19:51:03.685860900,2.69086083984375,0.5872695446014404,1.1196565628051758,-3.380928039550781,1.2648718357086182,-1.89589524269104,0.6774490475654602
2023-11-30 19:51:03.704462600,2.709462646484375,-0.1683793067932129,1.1736884117126465,-2.550176858901977,1.1433098316192627,-1.9676718711853027,0.5522217750549316
2023-11-30 19:51:03.723064300,2.728064208984375,-0.8785386085510254,1.5769500732421875,-1.4108551740646362,0.3351356983184814,-2.9068763256073,0.3729329407215118
2023-11-30 19:51:03.741666000,2.746666015625,-3.730734586715698,1.5638513565063477,0.5087697505950928,-0.3963748812675476,-3.052873134613037,0.3970620930194855
2023-11-30 19:51:03.760267800,2.765267822265625,-4.832871437072754,1.3153190612792969,0.8588736653327942,-0.8184824585914612,-2.3412156105041504,0.6215549111366272
2023-11-30 19:51:03.778869500,2.783869384765625,-4.300503730773926,1.4993157386779783,0.4477279186248779,-1.031368851661682,-1.0125846862792969,0.5830704569816589
2023-11-30 19:51:03.797471200,2.80247119140625,-2.4413344860076904,0.3128824234008789,0.7476182579994202,-1.093982458114624,-0.2593884468078613,0.318871408700943
2023-11-30 19:51:03.816073000,2.821072998046875,0.1313991546630859,-1.99198055267334,1.6766724586486816,-0.8872047066688538,-0.3644571900367737,0.1597411334514618
2023-11-30 19:51:03.834674700,2.8396748046875,3.061875104904175,-3.902445793151856,1.4925462007522583,-0.1825722157955169,-0.8015309572219849,0.3255909383296966
2023-11-30 19:51:03.853276400,2.8582763671875,4.250452041625977,-3.853226661682129,0.79975426197052,0.9530254006385804,-0.839099109172821,0.4236347377300262
2023-11-30 19:51:03.871878100,2.876878173828125,6.145140647888184,-4.573575019836426,1.0704118013381958,1.5779401063919067,-0.0972038581967353,0.4975493550300598
2023-11-30 19:51:03.890479900,2.89547998046875,5.77954626083374,-5.2296342849731445,0.6057981252670288,1.393153429031372,0.1969275325536728,0.2904661893844604
2023-11-30 19:51:03.909081600,2.91408154296875,2.185400009155273,-3.978514671325684,0.8160609006881714,0.533666729927063,0.9406554102897644,-0.0516180731356143
2023-11-30 19:51:03.927683300,2.932683349609375,-1.3326301574707031,-2.4500837326049805,1.2530877590179443,-0.2063959389925003,1.913152098655701,-0.2663370370864868
2023-11-30 19:51:03.946285000,2.95128515625,-3.8976504802703857,-0.418853759765625,1.294981598854065,-0.5316814184188843,2.116264581680298,-0.0183259434998035
2023-11-30 19:51:03.964886800,2.96988671875,-2.8522353172302246,0.9839162826538086,-0.9042216539382936,-0.7308233380317688,1.344131588935852,0.0925460159778595
2023-11-30 19:51:03.983488800,2.98848876953125,-1.75946307182312,3.353854179382324,-1.7608144283294678,-0.9434043169021606,0.4763981699943542,0.0287106446921825
2023-11-30 19:51:04.002090200,3.00709033203125,-1.684370517730713,4.698735237121582,-0.8712122440338135,-0.9986875653266908,-0.0171805713325738,0.0195476729422807
2023-11-30 19:51:04.020692000,3.02569189453125,-1.5921549797058103,4.80980396270752,-1.155571699142456,-0.8178715705871582,0.1440877318382263,0.044287696480751
2023-11-30 19:51:04.039294000,3.0442939453125,-0.0401115417480468,3.77294921875,-2.4073562622070312,-0.5286270976066589,0.6202568411827087,-0.0473420210182666
2023-11-30 19:51:04.057895700,3.062895751953125,1.2707383632659912,2.329339027404785,-3.2602875232696533,-0.1450040340423584,1.0582468509674072,-0.2431241869926452
2023-11-30 19:51:04.076497400,3.081497314453125,2.6203246116638184,1.0006113052368164,-3.5194125175476074,0.2743546366691589,1.3459641933441162,-0.3723220825195312
2023-11-30 19:51:04.095099100,3.10009912109375,3.5819084644317627,0.2752542495727539,-3.494408369064331,0.6564505696296692,1.4327069520950315,-0.3924806118011474
2023-11-30 19:51:04.113700900,3.118700927734375,3.757770776748657,-0.0476675033569335,-3.3860249519348145,0.9612720608711244,1.1721731424331665,-0.4450149834156036
2023-11-30 19:51:04.132302600,3.137302490234375,3.3750994205474854,-0.2553558349609375,-2.688174247741699,1.188819169998169,0.8010727763175964,-0.581848680973053
2023-11-30 19:51:04.150904300,3.155904296875,2.648502826690674,-0.5380697250366211,-1.1667368412017822,1.2413536310195925,0.4324159026145935,-0.7544180154800415
2023-11-30 19:51:04.169506000,3.174506103515625,1.4453072547912598,-1.237471580505371,0.0927832126617431,1.0037271976470947,0.146531194448471,-0.9169080257415771
2023-11-30 19:51:04.188107800,3.193107666015625,-0.1832444667816162,-1.7195930480957031,1.3199927806854248,0.4469239413738251,0.1126281917095184,-0.9993748068809508
2023-11-30 19:51:04.206709500,3.21170947265625,-2.2012240886688232,-1.4790630340576172,1.9749126434326167,-0.1697440445423126,0.6239219903945923,-0.850934624671936
2023-11-30 19:51:04.225311200,3.230311279296875,-3.663148641586304,-1.289663314819336,1.9311206340789795,-0.6187296509742737,1.5075379610061646,-0.4874700903892517
2023-11-30 19:51:04.243913000,3.248912841796875,-3.5317201614379883,-0.0922584533691406,0.8763666749000549,-0.9446260333061218,2.04601526260376,-0.1206457912921905
2023-11-30 19:51:04.262514700,3.2675146484375,-3.194303035736084,1.776763916015625,0.2305927276611328,-1.205465316772461,2.359999656677246,0.1288924664258957
2023-11-30 19:51:04.281116400,3.286116455078125,-2.4899001121521,3.3719615936279297,-0.3278188705444336,-1.3630683422088623,3.076544046401977,0.2382372617721557
2023-11-30 19:51:04.299718100,3.30471826171875,-1.303999423980713,3.9474921226501465,-0.91591477394104,-1.3474913835525513,3.902433395385742,0.2076940238475799
2023-11-30 19:51:04.318319900,3.32331982421875,0.5407049655914307,3.40932035446167,-1.758791208267212,-1.2030218839645386,3.7970590591430655,-0.0146607551723718
2023-11-30 19:51:04.336921600,3.341921630859375,2.924078941345215,0.6604032516479492,-3.277283906936645,-0.9070578217506408,2.5374560356140137,-0.4370737373828888
2023-11-30 19:51:04.355523300,3.3605234375,4.85628080368042,-3.249959945678711,-4.81252384185791,-0.2702313065528869,0.9971603751182556,-0.7651081085205078
2023-11-30 19:51:04.374125000,3.379125,6.375872611999512,-5.903730392456055,-5.198544502258301,0.5971966981887817,0.6599630117416382,-0.5421425104141235
2023-11-30 19:51:04.392726800,3.397726806640625,6.044597625732422,-4.924829483032227,-5.323999404907227,1.429194450378418,0.862770140171051,-0.3814850449562073
2023-11-30 19:51:04.411328800,3.416328857421875,4.217933654785156,-2.32343864440918,-3.7560935020446777,2.0754895210266118,1.072602152824402,-0.5345066785812378
2023-11-30 19:51:04.429930200,3.43493017578125,2.443044424057007,-0.9746065139770508,-0.871166467666626,2.474384069442749,1.2149336338043213,-0.8860593438148499
2023-11-30 19:51:04.448532000,3.453531982421875,1.0350534915924072,-0.127385139465332,1.0665552616119385,2.424293279647827,0.9553161859512328,-1.350927472114563
2023-11-30 19:51:04.467134000,3.472134033203125,-0.4708847999572754,0.5112400054931641,2.097956418991089,1.7227150201797483,0.4641808867454529,-1.6890411376953125
2023-11-30 19:51:04.485735400,3.4907353515625,-4.069095134735107,0.3514814376831054,3.026873826980591,1.014111876487732,0.8316160440444946,-1.5772528648376465
2023-11-30 19:51:04.504337400,3.50933740234375,-5.321380138397217,0.5239362716674805,1.6072680950164795,0.5092321634292603,1.5273910760879517,-1.3008365631103516
2023-11-30 19:51:04.522939100,3.527939208984375,-4.427714347839356,1.9214887619018557,0.46282958984375,0.0684932097792625,1.9800418615341189,-1.076649188995361
2023-11-30 19:51:04.541540900,3.546540771484375,-3.655369281768799,3.201089859008789,0.4222936630249023,-0.2589302957057953,2.052734851837158,-0.9205732345581056
2023-11-30 19:51:04.560142600,3.565142578125,-2.544380187988281,3.654470920562744,0.2379107475280761,-0.4812850952148437,1.786703109741211,-0.8381064534187317
2023-11-30 19:51:04.578744300,3.583744384765625,-1.170169234275818,3.682342529296875,-0.0970423221588134,-0.632168710231781,1.3505456447601318,-0.7440332770347595
2023-11-30 19:51:04.597346000,3.602345947265625,0.2343943119049072,3.2755231857299805,-0.7490154504776001,-0.7799979448318481,0.5857429504394531,-0.6108647584915161
2023-11-30 19:51:04.615947800,3.62094775390625,1.5694828033447266,2.3127336502075195,-1.705816388130188,-0.861853837966919,-0.3950004279613495,-0.4743365049362182
2023-11-30 19:51:04.634549500,3.639549560546875,2.624368667602539,1.439836025238037,-2.1386680603027344,-0.8365029692649841,-1.2123374938964844,-0.393702358007431
2023-11-30 19:51:04.653151200,3.658151123046875,3.0115420818328857,1.686945915222168,-1.382241129875183,-0.7222712635993958,-1.785023212432861,-0.287106454372406
2023-11-30 19:51:04.671753000,3.6767529296875,2.6631674766540527,2.178954601287842,-0.7109255194664001,-0.547563910484314,-2.4139084815979004,-0.2522871494293213
2023-11-30 19:51:04.690354700,3.695354736328125,3.761646270751953,0.3864164352416992,-0.3684489130973816,-0.2900844216346741,-2.7892849445343018,-0.2226602137088775
2023-11-30 19:51:04.708956400,3.713956298828125,4.944265365600586,-2.052337646484375,0.1271652579307556,0.2780198454856872,-2.5400521755218506,-0.044287696480751
2023-11-30 19:51:04.727558100,3.73255810546875,5.746523857116699,-4.207290649414063,0.3538534641265869,1.358028769493103,-1.6420809030532837,0.0830776095390319
2023-11-30 19:51:04.746159900,3.751159912109375,6.427823066711426,-6.545031547546387,0.6889760494232178,2.336939573287964,-0.820773184299469,-0.2739728391170501
2023-11-30 19:51:04.764761600,3.76976171875,6.10716438293457,-8.68780517578125,2.891966819763184,1.7425681352615356,-0.4539488852024078,-1.408348798751831
2023-11-30 19:51:04.783363300,3.78836328125,0.1466748714447021,-7.327821731567383,6.514517784118652,0.5303069949150085,0.7500655651092529,-2.103512763977051
2023-11-30 19:51:04.801965000,3.806965087890625,-8.028961181640625,-3.676458358764648,8.217700958251953,-0.1666897237300872,1.9901211261749268,-1.9575161933898928
2023-11-30 19:51:04.820566800,3.82556689453125,-7.42857027053833,-0.2758188247680664,4.084500789642334,-0.3526980578899383,1.9259803295135496,-1.3359612226486206
2023-11-30 19:51:04.839168500,3.84416845703125,-4.166322708129883,2.62552547454834,0.7790531516075134,-0.1837939471006393,1.1019237041473389,-0.6982184648513794
2023-11-30 19:51:04.857770200,3.862770263671875,-1.3827407360076904,4.784280776977539,0.0975295305252075,0.2306778132915496,0.1908188909292221,-0.0986546650528907
2023-11-30 19:51:04.876372000,3.8813720703125,-0.1147973537445068,6.229061603546143,-0.456500768661499,0.7233402729034424,-0.5370265245437622,0.3814850449562073
2023-11-30 19:51:04.894973700,3.8999736328125,0.4523494243621826,6.79672384262085,-0.4480445981025696,0.9835686683654784,-0.7447205185890198,0.7079922556877136
2023-11-30 19:51:04.913575400,3.918575439453125,-0.359750747680664,6.847892761230469,-0.3941716849803924,0.9609666466712952,-0.6799688339233398,0.8442151546478271
2023-11-30 19:51:04.932177200,3.93717724609375,-1.5805447101593018,5.391819953918457,0.3147185444831848,0.7514400482177734,-0.5471057891845703,0.7816014885902405
2023-11-30 19:51:04.950779000,3.95577880859375,-1.8767859935760496,3.621371269226074,1.2542593479156494,0.3925569653511047,-0.3476584255695343,0.6151408553123474
2023-11-30 19:51:04.969380900,3.974380859375,-1.8493502140045168,1.9771575927734373,2.0290112495422363,0.0355065166950225,-0.1301905512809753,0.4780016839504242
2023-11-30 19:51:04.987982300,3.992982421875,-1.9061667919158936,0.4954757690429687,2.044421911239624,-0.1559995859861374,0.0051159923896193,0.287106454372406
2023-11-30 19:51:05.006584000,4.011583984375,-1.0368983745574951,-0.7956686019897461,1.9728481769561768,-0.2876409590244293,0.0466547980904579,0.0842993408441543
2023-11-30 19:51:05.025186000,4.03018603515625,-0.6298630237579346,-2.0133190155029297,2.5247933864593506,-0.4037052690982818,-0.0923169404268264,0.1545487940311432
2023-11-30 19:51:05.043787500,4.04878759765625,-0.6532249450683594,-3.0384998321533203,1.908738613128662,-0.3478111326694488,-0.0584139451384544,0.5980366468429565
2023-11-30 19:51:05.062389500,4.067389404296875,-0.5226902961730957,-4.066557884216309,0.9410513639450072,-0.1498909443616867,-0.114918939769268,0.9886846542358398
2023-11-30 19:51:05.080991200,4.0859912109375,-0.0333278179168701,-3.5373096466064453,-0.1731769144535064,-0.011530072428286,-0.1421024203300476,1.000596523284912
2023-11-30 19:51:05.099592700,4.1045927734375,-0.8097541332244873,-0.9045419692993164,0.8423404097557068,0.0110719241201877,0.2897789776325226,0.7455604672431946
2023-11-30 19:51:05.118194700,4.123194580078125,-1.6581363677978516,0.1641683578491211,2.07051420211792,-0.0448222048580646,1.2925134897232056,0.5677987933158875
2023-11-30 19:51:05.136796400,4.14179638671875,-1.457650899887085,-0.8862218856811523,2.494868516921997,-0.1254563480615615,1.8196898698806765,0.4111120104789734
2023-11-30 19:51:05.155398100,4.160398193359375,0.3057715892791748,-2.231599807739258,2.278285026550293,-0.0658970400691032,1.5655701160430908,0.1524107605218887
2023-11-30 19:51:05.173999900,4.178999755859375,1.938793420791626,-1.639057159423828,2.202532291412353,0.1744782477617263,0.6758455038070679,-0.1612683087587356
2023-11-30 19:51:05.192601600,4.1976015625,3.4872968196868896,-0.977065086364746,2.121298551559448,0.4313468933105469,-0.1570686101913452,-0.3344484567642212
2023-11-30 19:51:05.211203300,4.216203369140625,4.050846099853516,-1.3708677291870115,1.0974525213241575,0.6323214173316956,-0.4295142889022827,-0.2672533392906189
2023-11-30 19:51:05.229805000,4.23480517578125,3.849538564682007,-1.4769344329833984,-0.4994932413101196,0.7337249517440796,-0.4542543292045593,-0.2834412455558777
2023-11-30 19:51:05.248406800,4.25340673828125,3.196058511734009,-0.5073251724243164,-0.8360624313354492,0.6399571895599365,-0.3821722865104675,-0.3484983444213867
2023-11-30 19:51:05.267008500,4.272008544921875,1.6884565353393557,0.9794621467590332,-0.1762112975120544,0.4322631955146789,-0.2242637276649475,-0.3824013471603393
2023-11-30 19:51:05.285610200,4.2906103515625,0.2876582145690918,1.832925796508789,0.0736676454544067,0.248087465763092,-0.0232892204076051,-0.4001164436340332
2023-11-30 19:51:05.304212000,4.3092119140625,-0.3652915954589844,1.932025909423828,0.3620717823505401,0.166842445731163,0.0649807378649711,-0.4563159942626953
2023-11-30 19:51:05.322813700,4.327813720703125,-0.5459394454956055,1.7913331985473633,0.7769004702568054,0.2013563066720962,0.0017562361899763,-0.5910117030143738
2023-11-30 19:51:05.341415400,4.34641552734375,-0.3300569057464599,1.694239616394043,1.4602282047271729,0.2945131957530975,0.0720056891441345,-0.7473930716514587
2023-11-30 19:51:05.360017200,4.36501708984375,-0.5136799812316895,1.6582145690917969,1.9165351390838623,0.4340957701206207,0.215253472328186,-0.8924734592437744
2023-11-30 19:51:05.378619000,4.383618896484375,-0.6920065879821777,1.362873077392578,2.300290107727051,0.525420069694519,0.3105483949184418,-1.0067051649093628
2023-11-30 19:51:05.397220600,4.402220703125,-0.7227587699890137,0.9670610427856444,2.511748552322388,0.4887681901454925,0.3050506114959717,-0.9865466356277466
2023-11-30 19:51:05.415822300,4.420822265625,-0.8319497108459473,0.5320949554443359,2.426382064819336,0.2755763828754425,0.0307723134756088,-0.8454368710517883
2023-11-30 19:51:05.434424000,4.439424072265625,-0.6072788238525391,-0.1916751861572265,1.7409334182739258,-0.0289397183805704,-0.4398989975452423,-0.5729911923408508
2023-11-30 19:51:05.453025800,4.45802587890625,-0.3599987030029297,-1.0959692001342771,1.4268333911895752,-0.1278998106718063,-0.8943824172019958,-0.0427605360746383
2023-11-30 19:51:05.471627500,4.47662744140625,0.5882706642150879,-1.88443660736084,-0.0131019949913024,-0.0310777463018894,-1.588630199432373,0.5186241865158081
2023-11-30 19:51:05.490229200,4.495229248046875,1.2090916633605957,-1.9826078414916992,-1.7412784099578855,0.0999527499079704,-2.186972379684448,0.8170316219329834
2023-11-30 19:51:05.508831000,4.5138310546875,0.8036870956420898,-1.078343391418457,-1.847140073776245,0.1500436663627624,-2.236452341079712,0.9291253089904784
2023-11-30 19:51:05.527432700,4.5324326171875,-0.1750726699829101,-0.253000259399414,-1.643514633178711,0.0721584036946296,-2.111225128173828,0.9230166673660278
2023-11-30 19:51:05.546034400,4.551034423828125,-1.018254041671753,0.5568199157714844,-1.4914424419403076,-0.0943022519350051,-1.9304090738296509,0.8292489647865295
2023-11-30 19:51:05.564636200,4.56963623046875,-1.417701244354248,1.347336769104004,-1.3343801498413086,-0.373162031173706,-1.8406119346618648,0.5797106623649597
2023-11-30 19:51:05.583238100,4.588238037109375,-1.1254451274871826,1.4473485946655271,-0.7343517541885376,-0.7467058300971985,-1.6213114261627195,0.3509418070316314
2023-11-30 19:51:05.601839600,4.606839599609375,0.3198294639587402,-0.3873395919799804,0.5035337209701538,-1.0142645835876465,-0.9395864009857178,0.2932150959968567
2023-11-30 19:51:05.620441300,4.62544140625,1.3750195503234863,-1.8648147583007808,0.9390361309051514,-0.7173843383789062,-0.4313468933105469,0.2272416949272155
2023-11-30 19:51:05.639043300,4.644043212890625,2.764770984649658,-2.05814266204834,1.568805694580078,0.2401462197303772,-0.7627410292625427,0.0030543238390237
2023-11-30 19:51:05.657644800,4.662644775390625,4.626301288604736,-1.4186582565307615,2.563013792037964,1.45057475566864,-1.1601085662841797,-0.2684750556945801
2023-11-30 19:51:05.676246800,4.681246826171875,6.692547798156738,-1.351395606994629,3.4947195053100586,2.03181266784668,-0.4637227356433868,-0.2119700759649276
2023-11-30 19:51:05.694848500,4.6998486328125,4.823993682861328,-0.6700201034545898,2.8033487796783447,1.8451933860778809,0.3508654534816742,0.0232128612697124
2023-11-30 19:51:05.713450000,4.718449951171875,0.2449951171875,0.3719024658203125,1.7343446016311646,1.1921789646148682,0.283975750207901,0.1908952444791793
2023-11-30 19:51:05.732052000,4.737052001953125,-2.0134823322296143,0.9433889389038086,1.9986616373062132,0.414242684841156,-0.0129045182839035,0.2440404742956161
2023-11-30 19:51:05.750653700,4.75565380859375,-2.7612593173980717,1.4374876022338867,2.403563976287842,-0.2473238706588745,0.0106137758120894,0.3381136655807495
2023-11-30 19:51:05.769255400,4.77425537109375,-3.2285308837890625,2.0733299255371094,2.390817165374756,-0.5750528573989868,-0.0150425452739,0.3900371491909027
2023-11-30 19:51:05.787857200,4.792857177734375,-2.4106786251068115,2.5908007621765137,2.379521369934082,-0.6019308567047119,-0.2575558722019195,0.4355465769767761
2023-11-30 19:51:05.806459000,4.811458984375,-0.534703254699707,2.237948417663574,2.664796829223633,-0.3694968223571777,-0.4252382516860962,0.5412262082099915
2023-11-30 19:51:05.825060600,4.830060546875,1.2041659355163574,1.1911554336547852,2.5169517993927,0.0272598415613174,-0.5437459945678711,0.6548470258712769
2023-11-30 19:51:05.843662300,4.848662353515625,2.314546585083008,0.3026142120361328,2.2222909927368164,0.3693441152572632,-0.6711113452911377,0.7736602425575256
2023-11-30 19:51:05.862264000,4.86726416015625,1.851580619812012,0.3771505355834961,1.7417874336242676,0.6094139814376831,-0.5904771685600281,0.8946114778518677
2023-11-30 19:51:05.880865800,4.88586572265625,0.2709617614746094,0.5625419616699219,0.5551079511642456,0.7777072191238403,-0.4554760456085205,0.9013310074806212
2023-11-30 19:51:05.899467500,4.904467529296875,-0.4376397132873535,0.6360845565795898,0.7892781496047974,0.7722094655036926,-0.2740492224693298,1.028390884399414
2023-11-30 19:51:05.918069200,4.9230693359375,-1.3014960289001465,0.8076591491699219,0.3639779090881347,0.1100320219993591,-0.5593230724334717,1.6633847951889038
2023-11-30 19:51:05.936671000,4.9416708984375,-3.267320156097412,0.7089376449584961,-1.566750168800354,-0.7415134906768799,-0.9285908341407776,2.342055559158325
2023-11-30 19:51:05.955272700,4.960272705078125,-6.053810119628906,0.1703338623046875,-3.4805827140808105,-1.2607485055923462,-1.0196096897125244,2.583347082138061
2023-11-30 19:51:05.973874400,4.97887451171875,-5.304633617401123,-0.0442705154418945,-2.192538261413574,-1.5417463779449463,-0.9518036842346193,2.407112598419189
2023-11-30 19:51:05.992476200,4.99747607421875,-4.234703063964844,0.2075023651123047,-0.0013647228479385,-1.7011820077896118,-0.7355575561523438,2.022878646850586
2023-11-30 19:51:06.011078000,5.016077880859375,-4.07779598236084,1.0683860778808594,1.3348581790924072,-1.585728645324707,-0.3714821338653564,1.6200133562088013
2023-11-30 19:51:06.029679600,5.0346796875,-3.3246817588806152,1.833329200744629,1.9285598993301392,-1.0402263402938845,-0.0003817904798779,1.2373065948486328
2023-11-30 19:51:06.048281300,5.05328125,-0.8566925525665283,1.443507194519043,2.170443534851074,-0.1914297491312027,0.3804923892021179,0.942258894443512
2023-11-30 19:51:06.066883000,5.071883056640625,2.2139902114868164,-0.2266464233398437,2.433732032775879,0.6121628880500793,0.6184242367744446,0.7757982611656189
2023-11-30 19:51:06.085484800,5.09048486328125,4.4645094871521,-2.2248106002807617,1.609402775764465,1.0474040508270264,0.422947496175766,0.5803215503692627
2023-11-30 19:51:06.104086800,5.109086669921875,5.155660629272461,-3.3770980834960938,0.990755558013916,1.1182643175125122,-0.1924987584352493,0.4315759539604187
2023-11-30 19:51:06.122688300,5.127688232421875,5.293181419372559,-4.042978286743164,-0.4524835348129272,0.7153990268707275,-0.7441096305847168,0.3732383847236633
2023-11-30 19:51:06.141290000,5.1462900390625,5.321298122406006,-5.083174705505371,-2.3541665077209477,-0.1697440445423126,-0.6769145131111145,0.3659079968929291
2023-11-30 19:51:06.159892000,5.16489208984375,3.9011545181274414,-5.175642967224121,-4.606395721435547,-1.0231221914291382,-0.1766162812709808,0.2898553311824798
2023-11-30 19:51:06.178493400,5.183493408203125,1.9810895919799805,-3.657032012939453,-5.114798545837402,-1.4027745723724363,0.0753654390573501,0.0867427960038185
2023-11-30 19:51:06.197095400,5.202095458984375,0.616508960723877,-0.97711181640625,-3.653766393661499,-1.305341720581055,0.2018144577741623,-0.2162461280822754
2023-11-30 19:51:06.215697200,5.220697265625,0.4501819610595703,0.8642692565917969,-2.180228471755981,-0.8881210088729858,0.2149480432271957,-0.5488619804382324
2023-11-30 19:51:06.234299000,5.239298828125,0.5279340744018555,1.830005645751953,-1.1596956253051758,-0.4015672206878662,0.3585012555122375,-0.7660244107246399
2023-11-30 19:51:06.252900600,5.257900634765625,0.381251573562622,2.405777931213379,-0.7484931945800781,0.0174860041588544,0.722882091999054,-0.7861829996109009
2023-11-30 19:51:06.271502300,5.27650244140625,-0.460242748260498,2.856729507446289,-1.1420505046844482,0.358348548412323,1.075961947441101,-0.6966912746429443
2023-11-30 19:51:06.290104000,5.29510400390625,-1.0541303157806396,3.314419269561768,-1.3029465675354004,0.6197986602783203,1.1709513664245603,-0.5980366468429565
2023-11-30 19:51:06.308705800,5.313705810546875,-1.3586091995239258,3.622684955596924,-1.0787434577941897,0.7780126333236694,0.9522618055343628,-0.4896081089973449
2023-11-30 19:51:06.327307500,5.3323076171875,-1.3536407947540283,3.4905076026916504,-1.0725293159484863,0.7670170664787292,0.4476875364780426,-0.3304778337478637
2023-11-30 19:51:06.345909200,5.3509091796875,-1.506188154220581,2.710606575012207,-1.48458993434906,0.6827177405357361,-0.0101556265726685,-0.0888808220624923
2023-11-30 19:51:06.364511000,5.369510986328125,-1.350278377532959,1.817936897277832,-2.39141845703125,0.544967770576477,-0.3455203771591186,0.05467239767313
2023-11-30 19:51:06.383112700,5.38811279296875,-0.8816874027252197,1.3227453231811523,-3.0017166137695312,0.2673296928405761,-0.6735547780990601,0.0259617529809474
2023-11-30 19:51:06.401714400,5.40671435546875,-0.8471486568450928,1.2396893501281738,-2.59305739402771,-0.1315650045871734,-0.7477748394012451,0.0549778304994106
2023-11-30 19:51:06.420316200,5.425316162109375,-1.4663493633270264,1.3283815383911133,-2.5049397945404053,-0.5631409883499146,-0.6164389252662659,0.1377500146627426
2023-11-30 19:51:06.438918000,5.44391796875,-1.965644359588623,0.9658308029174804,-2.618454933166504,-0.9800561666488647,-0.5364156365394592,0.1685986816883087
2023-11-30 19:51:06.457519600,5.46251953125,-2.0441572666168213,0.1717643737792968,-2.097733497619629,-1.3276382684707642,-0.5837576389312744,0.1994473487138748
2023-11-30 19:51:06.476121300,5.481121337890625,-2.1530966758728027,-0.2136926651000976,-1.3084914684295654,-1.4840196371078491,-0.5153408050537109,0.2434296160936355
2023-11-30 19:51:06.494723000,5.49972314453125,-2.193333864212036,0.4380035400390625,-0.6067959070205688,-1.3566542863845823,-0.474107414484024,0.2651153206825256
2023-11-30 19:51:06.513324800,5.51832470703125,-1.2771084308624268,1.9606118202209477,-0.3259086608886719,-1.1010074615478516,-0.3782016634941101,0.1194240674376487
2023-11-30 19:51:06.531926800,5.5369267578125,-0.5284194946289062,3.539548873901367,0.1720279455184936,-0.6443859934806824,-0.4597521126270294,-0.2272416949272155
2023-11-30 19:51:06.550528300,5.5555283203125,0.6581976413726807,3.906770706176758,1.0155829191207886,-0.1587484776973724,-0.9579123258590698,-0.7058542370796204
2023-11-30 19:51:06.569130000,5.5741298828125,2.4338150024414062,2.0664448738098145,1.0707627534866333,0.4020253717899322,-2.097480535507202,-1.2162318229675293
2023-11-30 19:51:06.587732000,5.59273193359375,4.190047740936279,-0.890965461730957,1.058566689491272,1.3436734676361084,-2.645120859146118,-1.2443315982818604
2023-11-30 19:51:06.606333400,5.61133349609375,5.570956707000732,-2.549407958984375,0.7554720044136047,2.579452991485596,-1.593211650848389,-0.8148936033248901
2023-11-30 19:51:06.624935400,5.629935302734375,6.531700611114502,-2.802475929260254,-1.170457124710083,3.393430233001709,-0.0449749194085598,-0.4245510101318359
2023-11-30 19:51:06.643537200,5.648537109375,5.914720058441162,-4.092841148376465,-1.371733784675598,3.0849435329437256,1.0157917737960815,-0.3656025826931
2023-11-30 19:51:06.662139000,5.667138916015625,4.527558326721191,-4.974955558776856,0.0656077191233635,1.625892996788025,1.566486358642578,-0.3930914998054504
2023-11-30 19:51:06.680740600,5.68574072265625,-1.3229351043701172,-3.9557037353515625,1.56490957736969,0.396222174167633,1.7631847858428955,-0.2480110973119735
2023-11-30 19:51:06.699342300,5.70434228515625,-2.6780216693878174,-1.389739990234375,-0.128038614988327,-0.1749363988637924,1.5509092807769775,-0.0216856990009546
2023-11-30 19:51:06.717944000,5.722944091796875,-1.721449613571167,0.5034103393554688,-1.1254761219024658,-0.2170860767364502,1.0496947765350342,0.2162461280822754
2023-11-30 19:51:06.736545800,5.7415458984375,0.0868330001831054,1.139878273010254,-1.591978669166565,0.0125990863889455,0.2406043708324432,0.3518581092357635
2023-11-30 19:51:06.755147500,5.7601474609375,1.291111946105957,0.9006681442260742,-1.5398670434951782,0.2242637276649475,-0.4579195082187652,0.4043924808502197
2023-11-30 19:51:06.773749200,5.778749267578125,2.000916004180908,0.3605232238769531,-1.5276226997375488,0.2603047490119934,-0.627129077911377,0.4062250852584839
2023-11-30 19:51:06.792351000,5.79735107421875,1.3746724128723145,0.1131229400634765,-1.716449737548828,0.2056323587894439,-0.5709294676780701,0.3875937163829803
2023-11-30 19:51:06.810952700,5.81595263671875,0.5754361152648926,0.3055810928344726,-1.653151035308838,0.1308014243841171,-0.5034289360046387,0.3665188550949096
2023-11-30 19:51:06.829554400,5.834554443359375,-0.0742850303649902,0.8215112686157227,-1.365302801132202,-0.0979674383997917,-0.5464949011802673,0.5082395076751709
2023-11-30 19:51:06.848156200,5.85315625,-0.3454079627990722,1.16099214553833,-1.1976368427276611,-0.546953022480011,-0.8320741653442383,0.8261946439743042
2023-11-30 19:51:06.866758000,5.8717578125,-2.391216278076172,0.6968955993652344,-2.683828830718994,-0.6492729187011719,-1.008919596672058,0.8701768517494202
2023-11-30 19:51:06.885359600,5.890359619140625,-1.447498798370361,0.3340530395507812,-1.5648492574691772,-0.5781071782112122,-0.8778890371322632,0.7116574645042419
2023-11-30 19:51:06.903961300,5.90896142578125,-0.8146395683288574,0.3307533264160156,-0.2197812795639038,-0.4935023784637451,-0.5333613157272339,0.4245510101318359
2023-11-30 19:51:06.922563000,5.92756298828125,-1.1172749996185305,0.4094982147216797,0.5917544960975647,-0.5026653409004211,0.0475710928440094,0.1142317131161689
2023-11-30 19:51:06.941164800,5.946164794921875,-2.0022873878479004,0.5860204696655273,1.0217430591583252,-0.5133554935455322,0.7317396402359009,-0.1001818254590034
2023-11-30 19:51:06.959766800,5.964766845703125,-2.8423070907592773,0.8736042976379395,0.8953238725662231,-0.3939314186573028,1.168202519416809,-0.1227838173508644
2023-11-30 19:51:06.978368500,5.983368408203125,-2.535395622253418,1.66046142578125,0.0711109042167663,-0.2005927264690399,1.3551270961761477,-0.0293215103447437
2023-11-30 19:51:06.996970000,6.001969970703125,-2.0217325687408447,2.773303985595703,-0.7495927810668945,0.0535270273685455,1.5066215991973877,0.0045814858749508
2023-11-30 19:51:07.015572000,6.020572021484375,-1.5406875610351562,3.599740028381348,-0.9391342401504515,0.2303723841905594,2.0796127319335938,-0.0561995580792427
2023-11-30 19:51:07.034173700,6.039173583984375,-0.8342385292053223,3.777374267578125,-0.7088618278503418,0.174172818660736,2.8639631271362305,-0.1194240674376487
2023-11-30 19:51:07.052775400,6.057775390625,-0.225163459777832,2.863475799560547,-1.3543890714645386,-0.1346193253993988,3.234147310256958,-0.2855792939662933
2023-11-30 19:51:07.071377200,6.076377197265625,1.2141575813293457,0.7522554397583008,-2.52018666267395,-0.5173261165618896,2.851135015487671,-0.6750055551528931
2023-11-30 19:51:07.089979000,6.094978759765625,2.854891777038574,-1.8811492919921875,-3.0277833938598637,-0.4599048197269439,1.6828560829162598,-1.147204041481018
2023-11-30 19:51:07.108580600,6.11358056640625,5.349259853363037,-4.14586067199707,-2.6818854808807373,0.0089338971301913,1.0802379846572876,-0.9282090067863464
2023-11-30 19:51:07.127182300,6.132182373046875,7.168482303619385,-4.486307144165039,-4.621634006500244,0.5984184145927429,1.3368011713027954,-0.2186895906925201
2023-11-30 19:51:07.145784000,6.1507841796875,5.603138446807861,-2.2233057022094727,-7.043745040893555,0.9618829488754272,1.5145628452301023,0.2034179717302322
2023-11-30 19:51:07.164385800,6.1693857421875,3.96767807006836,-0.6194372177124023,-5.706818580627441,0.9511927962303162,1.472718596458435,0.2415970265865326
2023-11-30 19:51:07.182987500,6.187987548828125,1.9659905433654783,0.3265333175659179,-3.949805736541748,0.7428879141807556,1.2903754711151123,0.0326812639832496
2023-11-30 19:51:07.201589200,6.20658935546875,0.615117073059082,0.6130013465881348,-2.731752634048462,0.6039161682128906,1.0750457048416138,-0.2461785078048706
2023-11-30 19:51:07.220191000,6.22519091796875,0.1051592826843261,0.7149252891540527,-2.398366451263428,0.6072759628295898,0.9128610491752625,-0.5115992426872253
2023-11-30 19:51:07.238792700,6.243792724609375,0.3536615371704101,0.5651440620422363,-2.318377017974853,0.6393463611602783,0.7949641346931458,-0.7440332770347595
2023-11-30 19:51:07.257394400,6.26239453125,0.0734162330627441,0.4348998069763183,-2.432741403579712,0.663475513458252,0.7644209265708923,-0.9837977290153505
2023-11-30 19:51:07.275996200,6.28099609375,-0.1297860145568847,0.1053647994995117,-2.517066478729248,0.6793580055236816,0.6621010899543762,-1.1853830814361572
2023-11-30 19:51:07.294598100,6.29959814453125,0.2424516677856445,-0.7733526229858398,-2.7869949340820312,0.6799688339233398,0.4455494880676269,-1.3518437147140503
2023-11-30 19:51:07.313199900,6.318199951171875,0.2481317520141601,-1.0456504821777344,-2.7593934535980225,0.6433169841766357,0.1831830739974975,-1.5112794637680054
2023-11-30 19:51:07.331801300,6.33680126953125,-0.1839375495910644,-0.5403356552124023,-2.312007188796997,0.5663480162620544,-0.0480292439460754,-1.6505566835403442
2023-11-30 19:51:07.350403300,6.3554033203125,-0.2709755897521972,-0.2425689697265625,-2.052593946456909,0.4301251769065857,-0.1191949918866157,-1.7403537034988403
2023-11-30 19:51:07.369005000,6.374005126953125,-0.2328405380249023,-0.0952329635620117,-2.0086169242858887,0.257250428199768,-0.0578030794858932,-1.7470732927322388
2023-11-30 19:51:07.387606800,6.392606689453125,-0.5097403526306152,0.3096284866333008,-2.019684314727783,0.0843756943941116,0.0649807378649711,-1.6252057552337646
2023-11-30 19:51:07.406208500,6.41120849609375,-0.9809584617614746,0.9730520248413086,-1.9990688562393188,-0.0622318498790264,0.2265544682741165,-1.3909391164779663
2023-11-30 19:51:07.424810200,6.429810302734375,-1.5466055870056152,1.7069768905639648,-1.982624053955078,-0.1727983802556991,0.4589885175228119,-1.1823288202285769
2023-11-30 19:51:07.443412000,6.448411865234375,-2.183704376220703,2.7856979370117188,-1.4650700092315674,-0.1392008066177368,0.2888626754283905,-1.21928608417511
2023-11-30 19:51:07.462013700,6.467013671875,-1.4980525970458984,3.141164302825928,-0.5929691195487976,-0.1401171088218689,-0.6604211926460266,-1.6444480419158936
2023-11-30 19:51:07.480615400,6.485615478515625,0.4623970985412597,2.282449245452881,1.2237770557403564,-0.303523451089859,-1.6952260732650757,-2.093128204345703
2023-11-30 19:51:07.499217200,6.504217041015625,1.1630377769470217,1.540966510772705,2.482754945755005,-0.164551705121994,-1.929492712020874,-2.1224496364593506
2023-11-30 19:51:07.517819000,6.52281884765625,2.054410934448242,1.7466721534729004,2.081770658493042,0.598723828792572,-1.5825215578079224,-1.7366886138916016
2023-11-30 19:51:07.536420600,6.541420654296875,5.514286994934082,2.2114830017089844,1.9213297367095947,1.4624866247177124,-0.4942659735679626,-1.2174534797668457
2023-11-30 19:51:07.555022300,6.560022216796875,8.208667755126953,1.6108851432800293,3.017066240310669,2.091372013092041,1.5160900354385376,-0.6411026120185852
2023-11-30 19:51:07.573624000,6.5786240234375,8.816032409667969,0.0433473587036132,5.1871442794799805,2.119777202606201,2.4675118923187256,-0.1912006735801696
2023-11-30 19:51:07.592225800,6.597225830078125,5.015793800354004,-0.2795929908752441,5.441695213317871,1.7370703220367432,1.8645883798599243,-0.1579085439443588
2023-11-30 19:51:07.610827500,6.61582763671875,1.8806681632995603,0.361246109008789,5.501224517822266,1.1100176572799685,1.0258710384368896,-0.4795288443565368
2023-11-30 19:51:07.629429500,6.634429443359375,-0.053873062133789,0.2292823791503906,5.852529525756836,0.3693441152572632,1.3758965730667114,-0.9880737662315368
2023-11-30 19:51:07.648031200,6.65303125,-2.4172959327697754,-0.3245382308959961,6.415898323059082,-0.1584430485963821,2.170020818710327,-1.166140913963318
2023-11-30 19:51:07.666632700,6.6716328125,-4.329840660095215,0.0060415267944335,4.407092571258545,-0.3835467100143432,2.697808027267456,-1.1658353805541992
2023-11-30 19:51:07.685234700,6.690234619140625,-4.125700950622559,1.2283010482788086,2.46351170539856,-0.4983893036842346,2.792491912841797,-1.092531681060791
2023-11-30 19:51:07.703836400,6.70883642578125,-3.88425350189209,2.0280747413635254,1.495201587677002,-0.5701659321784973,2.6174793243408203,-0.8775072693824768
2023-11-30 19:51:07.722438100,6.727438232421875,-3.3371853828430176,1.915888786315918,0.7644591927528381,-0.7402917742729187,2.2326343059539795,-0.3161225318908691
2023-11-30 19:51:07.741039900,6.746039794921875,-2.8022007942199707,0.8019952774047852,-0.6619954109191895,-0.955621600151062,1.6602541208267212,0.4227184355258941
2023-11-30 19:51:07.759641600,6.7646416015625,-2.5595571994781494,-0.2836666107177734,-1.9554580450057983,-1.1446841955184937,0.7314342260360718,1.0903936624526978
2023-11-30 19:51:07.778243300,6.783243408203125,-2.032677173614502,-0.7851500511169434,-2.375178575515747,-1.2598322629928589,-0.0794887766242027,1.4547744989395142
2023-11-30 19:51:07.796845000,6.801844970703125,-1.7071447372436523,-0.8015322685241699,-1.490928292274475,-1.3041199445724487,-0.3045924603939056,1.4926481246948242
2023-11-30 19:51:07.815446800,6.82044677734375,-1.5121684074401855,-0.8152084350585938,-0.4218880534172058,-1.299233078956604,0.0377972573041915,1.2147046327590942
2023-11-30 19:51:07.834048500,6.839048583984375,-1.4576406478881836,-0.7603216171264648,0.7340283393859863,-1.1700351238250732,0.7094430923461914,0.757777750492096
2023-11-30 19:51:07.852650200,6.857650146484375,-1.261819839477539,-0.1311616897583007,1.6979185342788696,-0.9605085253715516,1.3444370031356812,0.2922987937927246
2023-11-30 19:51:07.871252000,6.876251953125,-1.4323067665100098,1.1814508438110352,1.9298763275146484,-0.7858011722564697,1.978514671325684,-0.057421289384365
2023-11-30 19:51:07.889853700,6.894853759765625,-1.85074520111084,2.769990921020508,1.7873375415802002,-0.8221476078033447,2.812650442123413,-0.2724456787109375
2023-11-30 19:51:07.908455400,6.913455322265625,-1.7346365451812744,3.801510810852051,1.2266838550567627,-1.1275800466537476,3.208796262741089,-0.5287034511566162
2023-11-30 19:51:07.927057400,6.932057373046875,-0.2583184242248535,2.5322418212890625,1.262629747390747,-1.704541802406311,2.5960988998413086,-0.934012234210968
2023-11-30 19:51:07.945659000,6.950658935546875,2.072338104248047,-0.2956924438476562,1.4468408823013306,-1.8172463178634644,1.010293960571289,-1.5396846532821655
2023-11-30 19:51:07.964260900,6.9692607421875,5.940187454223633,-3.195918083190918,2.2446837425231934,-0.8441387414932251,-0.8229112029075623,-1.8270965814590452
2023-11-30 19:51:07.982862600,6.987862548828125,12.51181983947754,-6.864667892456055,2.2064008712768555,0.3278053104877472,-1.2172244787216189,-1.4492766857147217
2023-11-30 19:51:08.001464000,7.006464111328125,17.214088439941406,-9.474353790283203,0.5648907423019409,0.5541307330131531,-0.6072759628295898,-0.675616443157196
2023-11-30 19:51:08.020066000,7.025066162109375,11.938398361206056,-6.593347549438477,-1.0202805995941162,0.1756999790668487,-1.0196096897125244,-0.0247400235384702
2023-11-30 19:51:08.038667800,7.043667724609375,5.587342739105225,-1.1311492919921875,-0.8396336436271667,-0.2656498253345489,-1.4774528741836548,0.3698786199092865
2023-11-30 19:51:08.057269500,7.06226953125,1.6880168914794922,2.398137092590332,-0.7917158007621765,-0.3557523787021637,-1.5953497886657717,0.296269416809082
2023-11-30 19:51:08.075871200,7.080871337890625,0.2474246025085449,3.288107395172119,0.8522675633430481,-0.1541669964790344,-1.3079378604888916,-0.0482583157718181
2023-11-30 19:51:08.094473000,7.099472900390625,0.2879261970520019,2.960799217224121,2.376530647277832,0.1854738146066665,-0.7028762698173523,-0.4331031143665313
2023-11-30 19:51:08.113074700,7.11807470703125,0.4814033508300781,2.251063823699951,3.144495248794556,0.3549887835979461,-0.1866955459117889,-0.7312051653862
2023-11-30 19:51:08.131676400,7.136676513671875,0.2786450386047363,1.4504151344299316,3.2905023097991943,0.2566395699977875,-0.0956766977906227,-0.7812960743904114
2023-11-30 19:51:08.150278100,7.155278076171875,0.0395159721374511,0.9587602615356444,3.2871694564819336,0.0422260276973247,-0.4472293853759765,-0.4984656572341919
2023-11-30 19:51:08.168879900,7.1738798828125,0.2425193786621093,1.0118603706359863,2.4067084789276123,-0.109573870897293,-0.950581967830658,-0.0287106446921825
2023-11-30 19:51:08.187481600,7.192481689453125,0.4335770606994629,1.672316074371338,1.254193902015686,-0.0967457070946693,-1.2761728763580322,0.3210094273090362
2023-11-30 19:51:08.206083300,7.211083251953125,0.2979245185852051,2.641143798828125,0.9133633375167848,0.0660497546195983,-1.3241257667541504,0.5100721120834351
2023-11-30 19:51:08.224685000,7.22968505859375,0.1993398666381836,3.025834083557129,1.3935561180114746,0.2548069655895233,-1.1536945104599,0.6618719696998596
2023-11-30 19:51:08.243286800,7.248286865234375,-0.1591734886169433,3.1140947341918945,1.1575288772583008,0.3433823585510254,-1.0440442562103271,0.7434224486351013
2023-11-30 19:51:08.261888800,7.266888671875,-0.8086748123168945,3.281609535217285,0.834800124168396,0.2914588451385498,-1.071838617324829,0.7748819589614868
2023-11-30 19:51:08.280490500,7.285490478515625,-1.5263619422912598,3.5583457946777344,0.5433130860328674,0.1378263682126999,-1.1796562671661377,0.7883210182189941
2023-11-30 19:51:08.299092000,7.304092041015625,-1.9975018501281736,3.6877903938293457,0.2568145394325256,-0.0918587893247604,-1.254181742668152,0.8142827749252319
2023-11-30 19:51:08.317694000,7.32269384765625,-2.111538887023926,3.518527030944824,0.0018157213926315,-0.3908770978450775,-1.1689660549163818,0.8625410795211792
2023-11-30 19:51:08.336295700,7.341295654296875,-2.241156578063965,3.5395936965942383,-0.3469011187553406,-0.7015018463134766,-1.007086992263794,0.8973603844642639
2023-11-30 19:51:08.354897400,7.3598974609375,-2.466305732727051,3.970579147338867,-0.6140124797821045,-0.9247729182243348,-1.088331937789917,0.8426879644393921
2023-11-30 19:51:08.373499100,7.3784990234375,-2.1749792098999023,4.374752044677734,-0.4387347102165222,-1.0961204767227173,-1.5599195957183838,0.6847794055938721
2023-11-30 19:51:08.392100900,7.397100830078125,-1.2546119689941406,4.205086708068848,-0.0723099261522293,-1.2485312223434448,-1.9792782068252563,0.5812378525733948
2023-11-30 19:51:08.410702600,7.41570263671875,0.8850922584533691,1.5465621948242188,0.1531275808811187,-1.3551270961761477,-2.029369115829468,0.6429351568222046
2023-11-30 19:51:08.429304300,7.43430419921875,3.8758678436279297,-2.7254228591918945,0.2465741336345672,-0.9159153699874878,-1.7028619050979614,0.878728985786438
2023-11-30 19:51:08.447906000,7.452906005859375,7.205425262451172,-6.746336936950684,0.2222388982772827,0.1946367919445037,-1.8088469505310056,0.9172134399414062
2023-11-30 19:51:08.466507800,7.4715078125,8.832597732543945,-5.694252967834473,0.5537103414535522,1.384601354598999,-2.2416446208953857,0.8020654320716858
2023-11-30 19:51:08.485109500,7.490109619140625,9.016565322875977,-3.879304885864258,1.3250192403793335,1.7700570821762085,-1.967977285385132,0.8442151546478271
2023-11-30 19:51:08.503711200,7.508711181640625,6.80175256729126,-3.4861154556274414,-0.0969836637377739,1.486615777015686,-1.8329761028289795,0.8066469430923462
2023-11-30 19:51:08.522313000,7.52731298828125,3.914565563201904,-2.802653312683105,0.0385283753275871,0.8739184141159058,-1.5748857259750366,0.8115338683128357
2023-11-30 19:51:08.540914700,7.545914794921875,1.736811637878418,-1.5390090942382812,0.1492525488138198,0.4753291606903076,-1.376049280166626,0.6991347670555115
2023-11-30 19:51:08.559516700,7.5645166015625,0.8723654747009277,-1.124558448791504,0.5174355506896973,0.488462746143341,-1.0648136138916016,0.370184063911438
2023-11-30 19:51:08.578118100,7.5831181640625,1.3903908729553225,-1.542215347290039,1.7342567443847656,0.7212022542953491,-0.6631700992584229,0.0519235059618949
2023-11-30 19:51:08.596720000,7.60172021484375,1.3217172622680664,-1.6284208297729492,2.4750938415527344,0.9346994757652284,-0.3696495592594147,-0.067805990576744
2023-11-30 19:51:08.615321900,7.62032177734375,0.3953995704650879,-0.9306211471557616,1.8431727886199951,1.015944480895996,-0.3659843504428863,-0.0400116443634033
2023-11-30 19:51:08.633923300,7.63892333984375,-0.7856173515319824,-0.033696174621582,1.0398465394973757,0.988455593585968,-0.5892554521560669,0.0888808220624923
2023-11-30 19:51:08.652525300,7.657525390625,-1.6915147304534912,0.7834324836730957,0.3595499396324157,0.8784999251365662,-0.8415426015853882,0.2712239623069763
2023-11-30 19:51:08.671127000,7.676126953125,-2.506868839263916,1.4356632232666016,-0.0474341511726379,0.5290852785110474,-1.1949278116226196,0.7406735420227051
2023-11-30 19:51:08.689728800,7.694728759765625,-3.069256067276001,1.762348175048828,-1.0323307514190674,-0.0475710928440094,-1.496695041656494,1.2617411613464355
2023-11-30 19:51:08.708330500,7.71333056640625,-5.151576042175293,1.710702896118164,-3.0157229900360107,-0.4394408464431762,-1.5461751222610474,1.3683371543884275
2023-11-30 19:51:08.726932200,7.73193212890625,-4.805351257324219,1.7077436447143557,-1.6856610774993896,-0.5933787822723389,-1.5431207418441772,1.21287202835083
2023-11-30 19:51:08.745534000,7.750533935546875,-3.289332151412964,1.7881269454956057,-0.2598401308059692,-0.5823832154273987,-1.3042726516723633,0.9972367286682128
2023-11-30 19:51:08.764135700,7.7691357421875,-2.0939371585845947,1.5706300735473633,0.1378351598978042,-0.4684569239616394,-0.9469167590141296,0.7846558094024658
2023-11-30 19:51:08.782737400,7.7877373046875,-1.142927169799805,1.1210708618164062,0.0168522298336029,-0.3041343092918396,-0.6811906099319458,0.5458076596260071
2023-11-30 19:51:08.801339100,7.806339111328125,-0.7447593212127686,1.0298595428466797,0.2341221570968628,-0.0854447111487388,-0.5043452382087708,0.3445277214050293
2023-11-30 19:51:08.819940900,7.82494091796875,-0.6534347534179688,1.3615436553955078,0.4451446831226349,0.1314122825860977,-0.2386190593242645,0.1857028901576995
2023-11-30 19:51:08.838542600,7.84354248046875,-0.7492170333862305,1.5519633293151855,0.6183719635009766,0.3030652999877929,0.0512362830340862,0.0812450125813484
2023-11-30 19:51:08.857144300,7.862144287109375,-1.0112934112548828,1.4794940948486328,0.7689722776412964,0.3965275883674621,0.2015090137720108,0.044287696480751
2023-11-30 19:51:08.875746000,7.88074609375,-1.2722458839416504,1.3390913009643557,0.7859551310539246,0.3552942276000976,0.3023017048835754,0.0238237269222736
2023-11-30 19:51:08.894348000,7.89934814453125,-1.7816715240478516,1.360595703125,0.7816418409347534,0.1943313628435135,0.6449968218803406,-0.0537560991942882
2023-11-30 19:51:08.912949800,7.91794970703125,-1.8197526931762693,0.8441123962402344,1.2879157066345217,-0.1184314116835594,0.9098067283630372,-0.0995709598064422
2023-11-30 19:51:08.931551500,7.936551513671875,-1.12013578414917,-0.1960458755493164,1.2433230876922607,-0.537790060043335,0.7079159021377563,-0.1295033395290374
2023-11-30 19:51:08.950153200,7.9551533203125,0.1486225128173828,-1.304851531982422,0.850023090839386,-0.8865938782691956,0.0264962594956159,-0.1569922417402267
2023-11-30 19:51:08.968755000,7.9737548828125,0.8249983787536621,-1.0929231643676758,0.5085926055908203,-0.8273400068283081,-0.6188823580741882,-0.0653625279664993
2023-11-30 19:51:08.987356700,7.992356689453125,1.9779586791992188,-1.2882976531982422,0.0672572553157806,-0.261984646320343,-1.1280381679534912,0.1640172004699707
2023-11-30 19:51:09.005958400,8.01095849609375,4.34360933303833,-2.727473258972168,-0.7201273441314697,0.4273762702941894,-1.4927244186401367,0.3478874862194061
2023-11-30 19:51:09.024560000,8.02956005859375,5.870983123779297,-3.528106689453125,-0.8432044982910156,0.7841212749481201,-1.3968186378479004,0.3857611119747162
2023-11-30 19:51:09.043161900,8.048161865234375,3.991219997406006,-2.520636558532715,-0.0887776687741279,0.8504001498222351,-1.0464876890182495,0.3591884970664978
2023-11-30 19:51:09.061763600,8.066763671875,1.968190670013428,-1.3185901641845703,0.8312101364135742,0.720285952091217,-0.8830813765525818,0.324063777923584
2023-11-30 19:51:09.080365300,8.085365234375,0.2297506332397461,-0.0631027221679687,0.8532103896141052,0.5187005400657654,-0.8916335105895996,0.1936441361904144
2023-11-30 19:51:09.098967000,8.103967041015625,-0.5543217658996582,0.3033323287963867,1.519796371459961,0.3485747277736664,-0.7719039916992188,0.0360410213470459
2023-11-30 19:51:09.117568800,8.12256884765625,-1.3241455554962158,0.5131182670593262,1.9635756015777588,0.2963457703590393,-0.5403862595558167,-0.0891862586140632
2023-11-30 19:51:09.136170500,8.14117041015625,-1.7849338054656982,0.7455472946166992,2.1442697048187256,0.3262781500816345,-0.2062432169914245,-0.1765399277210235
2023-11-30 19:51:09.154772200,8.159772216796876,-1.729525089263916,0.9368081092834472,2.0934038162231445,0.391640692949295,0.0778089016675949,-0.2538143098354339
2023-11-30 19:51:09.173374000,8.1783740234375,-1.9576616287231443,0.7028646469116211,2.063421726226806,0.4441750645637512,0.1288161128759384,-0.2809978127479553
2023-11-30 19:51:09.191976000,8.196975830078125,-1.6382474899291992,0.1279382705688476,1.6784610748291016,0.4759400188922882,0.117209680378437,-0.2889390289783478
2023-11-30 19:51:09.210577400,8.215577392578124,-1.5156328678131104,-0.2525587081909179,0.8442862033843994,0.4820486605167389,0.1034652218222618,-0.2895499169826507
2023-11-30 19:51:09.229179400,8.234179443359375,-1.4740972518920898,-0.6981000900268555,0.1432124972343444,0.4053851366043091,0.146531194448471,-0.2596175372600555
2023-11-30 19:51:09.247781000,8.252781005859376,-2.074523448944092,-1.2665519714355469,-0.8918668031692505,0.3061196208000183,0.2149480432271957,-0.2046397030353546
2023-11-30 19:51:09.266382800,8.2713828125,-2.4857447147369385,-1.7528142929077148,-1.9022492170333865,0.1201112866401672,-0.0370336771011352,-0.1075121983885765
2023-11-30 19:51:09.284984600,8.289984619140625,-2.70355486869812,-1.9351377487182615,-2.9672393798828125,-0.2528216540813446,-0.3974438905715942,0.0119118634611368
2023-11-30 19:51:09.303586300,8.30858642578125,-3.3882086277008057,-1.7255001068115234,-3.644831418991089,-0.5976548194885254,-0.5749000906944275,0.0268780495971441
2023-11-30 19:51:09.322188000,8.32718798828125,-3.7742433547973633,-1.129155158996582,-3.570791959762573,-0.7158571481704712,-0.4869355857372284,-0.0815504491329193
2023-11-30 19:51:09.340789800,8.345789794921876,-3.1888551712036133,-0.3244028091430664,-2.6761317253112797,-0.6443859934806824,-0.4499782621860504,-0.1698204129934311
2023-11-30 19:51:09.359391500,8.3643916015625,-2.1968581676483154,0.6019530296325684,-2.1466312408447266,-0.4498255550861358,-0.4676933586597442,-0.2464839369058609
2023-11-30 19:51:09.377993200,8.3829931640625,-1.4411239624023438,1.4583406448364258,-1.6133054494857788,-0.2338848561048507,-0.4976257085800171,-0.3164279460906982
2023-11-30 19:51:09.396595000,8.401594970703124,-0.9679164886474608,1.9980792999267576,-1.082738161087036,-0.1526398360729217,-0.552603542804718,-0.3625482320785522
2023-11-30 19:51:09.415196700,8.42019677734375,-0.81561279296875,2.229154109954834,-0.6300978064537048,-0.3954585790634155,-0.8192460536956787,-0.3680460155010223
2023-11-30 19:51:09.433798400,8.43879833984375,-0.4577946662902832,1.5269851684570312,0.039730429649353,-0.9605085253715516,-1.079779863357544,-0.1401934623718261
2023-11-30 19:51:09.452400000,8.457400146484375,0.0783371925354003,0.4832668304443359,0.8197306394577026,-1.3878084421157837,-0.6194932460784912,0.4056142270565033
2023-11-30 19:51:09.471002000,8.476002197265625,1.27105712890625,-0.7220125198364258,0.4597377777099609,-1.309312343597412,-0.2441168427467346,0.9260709881782532
2023-11-30 19:51:09.489603600,8.494603515625,2.7883996963500977,-1.2794198989868164,-0.0826311111450195,-0.7448732256889343,-0.6533962488174438,1.2534945011138916
2023-11-30 19:51:09.508205300,8.513205322265625,4.828258991241455,-1.82613468170166,-0.0314750075340271,0.0239000841975212,-1.3271801471710205,1.3918553590774536
2023-11-30 19:51:09.526807300,8.531807373046876,6.203855037689209,-2.982192039489746,-0.2184628248214721,0.5755109786987305,-1.7468441724777222,1.496007800102234
2023-11-30 19:51:09.545409000,8.550408935546875,6.98175048828125,-3.956240653991699,-0.0140156745910644,0.6228529810905457,-1.6002366542816162,1.6062688827514648
2023-11-30 19:51:09.564010800,8.5690107421875,4.603029251098633,-3.169980049133301,-1.37977933883667,0.3833940029144287,-1.3473386764526367,1.564424753189087
2023-11-30 19:51:09.582612500,8.587612548828124,2.6975765228271484,-2.1746826171875,-1.545914888381958,0.0877354517579078,-1.1182643175125122,1.3643665313720703
2023-11-30 19:51:09.601214200,8.606214111328125,1.968425273895264,-1.7797012329101562,-1.5543320178985596,-0.125761792063713,-0.7893136739730835,1.0763437747955322
2023-11-30 19:51:09.619816000,8.62481591796875,1.939565658569336,-1.5966548919677734,-1.308363914489746,-0.2409097999334335,-0.3827831447124481,0.7822123765945435
2023-11-30 19:51:09.638417700,8.643417724609375,0.9450421333312988,-0.7055377960205078,-1.6829144954681396,-0.1804341822862625,-0.0956766977906227,0.4621191918849945
2023-11-30 19:51:09.657019400,8.662019287109375,0.5487995147705078,-0.057194709777832,-1.4401872158050537,0.0290924347937107,0.1022434905171394,0.1994473487138748
2023-11-30 19:51:09.675621000,8.68062109375,0.3692154884338379,0.3263683319091797,-1.4748328924179075,0.3323867917060852,0.2415206581354141,0.1160643100738525
2023-11-30 19:51:09.694222800,8.699222900390625,0.1924982070922851,0.4327754974365234,-2.0129644870758057,0.4017199575901031,-0.0465020798146724,0.2605338394641876
2023-11-30 19:51:09.712824600,8.717824462890626,-0.2362957000732422,0.4452924728393554,-2.960104465484619,-0.7234929800033569,-1.1857649087905884,0.823445737361908
2023-11-30 19:51:09.731426300,8.73642626953125,-6.367259502410889,0.001993179321289,-5.9014410972595215,-1.4485894441604614,-1.5571706295013428,0.9941824078559875
2023-11-30 19:51:09.750028000,8.755028076171875,-7.58396577835083,0.0361385345458984,-5.244172096252441,-1.637346625328064,-1.3256529569625854,0.6728675365447998
2023-11-30 19:51:09.768630000,8.773630126953124,-5.268918037414551,0.6962356567382812,-2.1079437732696533,-1.319697022438049,-1.070006012916565,0.1472184062004089
2023-11-30 19:51:09.787231500,8.7922314453125,-3.0531935691833496,1.5859131813049316,-2.73287296295e-05,-0.5429824590682983,-0.7386118769645691,-0.3720166385173797
2023-11-30 19:51:09.805833200,8.810833251953126,-0.4541373252868652,2.0210628509521484,1.2625362873077393,0.3763690590858459,-0.0694095119833946,-0.6520981788635254
2023-11-30 19:51:09.824435200,8.829435302734375,0.9855575561523438,1.9454221725463867,1.196528434753418,1.0956623554229736,0.7366265654563904,-0.767857015132904
2023-11-30 19:51:09.843037000,8.848036865234375,0.6358358860015869,1.8475399017333984,0.8542323708534241,1.4722604751586914,1.378950834274292,-0.7996219992637634
2023-11-30 19:51:09.861638700,8.866638671875,-0.4370172023773193,2.163947105407715,0.7692785859107971,1.4908918142318726,1.8181626796722408,-0.8188642263412476
2023-11-30 19:51:09.880240400,8.885240478515625,-1.3704581260681152,2.382701873779297,0.7473855018615723,1.1747692823410034,1.8700861930847168,-0.8387173414230347
2023-11-30 19:51:09.898842000,8.903842041015626,-2.062752246856689,2.464409828186035,0.6360068321228027,0.6286562085151672,1.6376521587371826,-0.8084795475006104
2023-11-30 19:51:09.917443800,8.92244384765625,-2.488664150238037,2.767277717590332,0.2804189622402191,0.0071013029664754,1.63856840133667,-0.6545416116714478
2023-11-30 19:51:09.936045600,8.941045654296875,-2.7756381034851074,3.3809213638305664,-0.3919974565505981,-0.5875755548477173,1.8841360807418823,-0.4499019086360931
2023-11-30 19:51:09.954647300,8.959647216796874,-2.6146512031555176,3.592301368713379,-1.1853139400482178,-1.0307579040527344,1.90704345703125,-0.3335321843624115
2023-11-30 19:51:09.973249000,8.9782490234375,-1.3365178108215332,2.867720603942871,-1.36724054813385,-1.1901936531066897,1.5725950002670288,-0.3350593447685241
2023-11-30 19:51:09.991850800,8.996850830078126,1.282024383544922,0.7767124176025391,-1.2958993911743164,-0.9837213754653932,0.9043089747428894,-0.3720166385173797
2023-11-30 19:51:10.010452500,9.015452392578124,4.793600082397461,-2.5123605728149414,-1.6631606817245483,-0.4482983946800232,0.307494044303894,-0.2806923687458038
2023-11-30 19:51:10.029054200,9.03405419921875,8.204106330871582,-5.80599308013916,-2.6539671421051025,-0.0054214247502386,0.5778017044067383,0.1139262840151786
2023-11-30 19:51:10.047656000,9.052656005859374,8.018233299255371,-6.977239608764648,-5.218057155609131,0.1323285847902298,0.7580068111419678,0.1276707351207733
2023-11-30 19:51:10.066257700,9.071257568359377,5.127365112304688,-4.96864128112793,-5.230749130249023,0.0944549664855003,0.7809142470359802,-0.2883281707763672
2023-11-30 19:51:10.084859400,9.089859375,2.208029270172119,-2.474538803100586,-3.121110677719116,0.176005408167839,0.9592867493629456,-0.7916807532310486
2023-11-30 19:51:10.103461400,9.10846142578125,0.6461794376373291,-1.1697282791137695,-2.446864604949951,0.5941423773765564,1.5374703407287598,-1.3271037340164185
2023-11-30 19:51:10.122063000,9.12706298828125,0.8702852725982666,-1.0947284698486328,-2.3705787658691406,1.184237718582153,2.5234060287475586,-1.7718132734298706
2023-11-30 19:51:10.140664600,9.14566455078125,0.2500348091125488,-1.2237119674682615,-2.848626613616944,1.7685298919677734,3.030118465423584,-2.172540664672852
2023-11-30 19:51:10.159266600,9.1642666015625,-0.30898118019104,-1.034137725830078,-2.9880261421203613,2.071213483810425,2.659018039703369,-2.3377795219421387
2023-11-30 19:51:10.177868300,9.182868408203126,-0.9152650833129884,-0.4461898803710937,-3.207033395767212,1.828700065612793,1.6382629871368408,-2.24889874458313
2023-11-30 19:51:10.196470000,9.201469970703124,-1.736269474029541,0.1228952407836914,-3.5932071208953857,1.198593020439148,0.9773072600364684,-1.9425499439239504
2023-11-30 19:51:10.215071700,9.22007177734375,-3.172702550888061,0.0904350280761718,-3.549358606338501,0.4618901312351227,1.3685661554336548,-1.4092650413513184
2023-11-30 19:51:10.233673500,9.238673583984376,-3.651832103729248,0.1494092941284179,-4.126547813415527,-0.3087157905101776,1.7946443557739258,-0.9043853282928468
2023-11-30 19:51:10.252275200,9.257275146484377,-3.4545047283172607,0.9783248901367188,-4.230933666229248,-0.9229403138160706,1.621769666671753,-0.5070177912712097
2023-11-30 19:51:10.270877000,9.275876953125,-2.6384236812591557,1.903465747833252,-3.8461947441101074,-1.2705223560333252,1.1782817840576172,-0.1750127524137497
2023-11-30 19:51:10.289478700,9.294478759765624,-1.3403959274291992,2.58237361907959,-3.809970140457153,-1.4217114448547363,0.8539125919342041,0.0931568816304206
2023-11-30 19:51:10.308080400,9.313080322265623,-0.4906535148620605,3.0314865112304688,-3.359455108642578,-1.4614176750183103,0.7332668304443359,0.352163553237915
2023-11-30 19:51:10.326682000,9.33168212890625,0.1282472610473632,3.06284761428833,-2.891530513763428,-1.4873794317245483,0.6346121430397034,0.5601630210876465
2023-11-30 19:51:10.345283800,9.350283935546877,0.4674615859985351,3.0395822525024414,-2.299497604370117,-1.5316671133041382,0.4730384051799774,0.66645348072052
2023-11-30 19:51:10.363885600,9.368885498046875,0.7064852714538574,2.8148488998413086,-1.4337778091430664,-1.5799254179000854,0.1895971596240997,0.6407971382141113
2023-11-30 19:51:10.382487300,9.3874873046875,1.6996777057647705,1.678384780883789,-0.6206504106521606,-1.54693865776062,-0.4148535430431366,0.4673115611076355
2023-11-30 19:51:10.401089000,9.406089111328123,2.6660776138305664,0.7824373245239258,0.5786876082420349,-1.148349404335022,-0.6515636444091797,0.3579667508602142
2023-11-30 19:51:10.419690800,9.424690673828126,3.706816911697388,1.0770769119262695,1.6142842769622805,-0.2946659028530121,0.1059086844325065,0.4175260663032532
2023-11-30 19:51:10.438292700,9.443292724609377,5.171425819396973,1.2792396545410156,1.6567320823669434,0.8183297514915466,0.5887972712516785,0.5955931544303894
2023-11-30 19:51:10.456894500,9.46189453125,6.827200889587402,0.1869058609008789,1.6703331470489502,1.9713369607925413,0.1715766489505767,0.8112284541130066
2023-11-30 19:51:10.475496000,9.480495849609374,9.10621738433838,-1.983905792236328,0.6953838467597961,2.485685110092163,-0.0205403286963701,0.6395754218101501
2023-11-30 19:51:10.494098000,9.499097900390623,9.710052490234377,-4.351677894592285,1.6302993297576904,2.088928461074829,0.3920988440513611,0.3927860558032989
2023-11-30 19:51:10.512699600,9.51769970703125,4.653121948242188,-4.310013771057129,1.5730546712875366,1.5541163682937622,0.8450550436973572,0.1478292793035507
2023-11-30 19:51:10.531301400,9.53630126953125,0.8565702438354492,-2.816473960876465,1.279987096786499,0.1854738146066665,0.8948405385017395,0.1142317131161689
2023-11-30 19:51:10.549903000,9.554903076171875,-1.699770450592041,-1.874530792236328,1.3980964422225952,-1.5191442966461182,1.104978084564209,0.5760455131530762
2023-11-30 19:51:10.568504800,9.5735048828125,-11.588802337646484,-3.9238338470458975,-1.99539053440094,-2.157803535461426,1.220126032829285,0.8558215498924255
2023-11-30 19:51:10.587106600,9.5921064453125,-7.78619909286499,-2.4349241256713867,-2.696378469467163,-2.256152629852295,0.9388228058815002,0.831997811794281
2023-11-30 19:51:10.605708300,9.610708251953126,-4.648159503936768,0.2906475067138672,-1.573966145515442,-2.072587728500366,0.6382773518562317,0.6411026120185852
2023-11-30 19:51:10.624310000,9.62931005859375,-3.063499212265014,2.1602911949157715,-0.915030002593994,-1.593975305557251,0.4009563624858856,0.4462367296218872
2023-11-30 19:51:10.642911700,9.647911865234375,-1.413862705230713,3.230569839477539,-1.0999016761779783,-0.8190932869911194,0.3016908466815948,0.2370155304670334
2023-11-30 19:51:10.661513500,9.666513427734374,0.2975943088531494,3.241580009460449,-1.233332872390747,0.1353829056024551,0.3539197742938995,-0.0467311553657054
2023-11-30 19:51:10.680115200,9.685115234375,2.074054479598999,2.1884450912475586,-1.2187635898590088,1.1158208847045898,0.5380955338478088,-0.4178315103054046
2023-11-30 19:51:10.698717000,9.703717041015626,3.000484704971313,0.8816461563110352,-0.8435676097869873,1.9933280944824217,0.7714458703994751,-0.8775072693824768
2023-11-30 19:51:10.717318700,9.722318603515625,3.065857410430908,0.0920782089233398,-0.0120820999145507,2.624046087265014,1.113530158996582,-1.2183698415756226
2023-11-30 19:51:10.735920400,9.74092041015625,2.100069522857666,-0.0027284622192382,0.7137227058410645,2.6209917068481445,1.3004547357559204,-1.433699607849121
2023-11-30 19:51:10.754522000,9.759522216796874,-0.0004708766937255,0.7621736526489258,0.8607344627380371,1.7382920980453491,1.3746747970581057,-1.6129884719848633
2023-11-30 19:51:10.773123800,9.778123779296877,-4.707457542419434,1.3233685493469238,1.3907992839813232,0.914540946483612,1.352072834968567,-1.821598768234253
2023-11-30 19:51:10.791725600,9.7967255859375,-6.575583457946777,0.9337224960327148,2.376725196838379,0.4964039921760559,1.0554980039596558,-1.943160891532898
2023-11-30 19:51:10.810327300,9.815327392578125,-4.560512542724609,1.1945676803588867,3.041170358657837,0.2233474403619766,0.7778599262237549,-1.81946074962616
2023-11-30 19:51:10.828929300,9.83392919921875,-4.103476524353027,2.6135501861572266,2.5277252197265625,0.1934150606393814,1.0973422527313232,-1.191491723060608
2023-11-30 19:51:10.847530800,9.85253076171875,-2.8108105659484863,4.37249755859375,0.5598542094230652,0.4457022249698639,1.9849287271499636,-0.5277871489524841
2023-11-30 19:51:10.866132700,9.8711328125,0.2281079292297363,4.504039287567139,-0.966791033744812,0.709595799446106,1.9879831075668333,-0.0870482325553894
2023-11-30 19:51:10.884734500,9.889734375,5.094789505004883,2.161501407623291,0.0772671699523925,0.7673225402832031,-0.2010508775711059,-0.1747073233127594
2023-11-30 19:51:10.903336000,9.9083359375,11.229604721069336,-2.348759651184082,1.1279590129852295,0.4240165054798126,-1.6048181056976318,-0.5531380772590637
2023-11-30 19:51:10.921938000,9.92693798828125,13.199421882629396,-6.464720726013184,2.6070141792297363,0.0275652725249528,-0.1845575273036956,-0.444404125213623
2023-11-30 19:51:10.940539600,9.94553955078125,9.7122802734375,-7.602436065673828,0.6553516983985901,0.0397825688123703,0.568027913570404,-0.2977965772151947
2023-11-30 19:51:10.959141400,9.964141357421877,6.392085552215576,-5.0898847579956055,-0.0902503132820129,0.1589011996984481,0.6340012550354004,-0.3130682110786438
2023-11-30 19:51:10.977743000,9.9827431640625,3.61643123626709,-2.048828125,0.4478705525398254,-0.266566127538681,0.2140317410230636,-0.4902189970016479
2023-11-30 19:51:10.996344800,10.0013447265625,0.3816175460815429,-0.4053049087524414,0.856759250164032,-0.8114575147628784,0.2067013680934906,-0.6710349321365356
2023-11-30 19:51:11.014946600,10.019946533203123,-4.569011211395264,-0.5662775039672852,2.330869436264038,-0.8270345330238342,0.6113992929458618,-0.4944950342178345
2023-11-30 19:51:11.033548300,10.03854833984375,-3.0930395126342773,0.7132072448730469,0.8494910001754761,-0.5967385172843933,0.8994220495223999,-0.1249218508601188
2023-11-30 19:51:11.052150000,10.05714990234375,-1.903001308441162,1.7499394416809082,-0.4306598305702209,-0.4944186806678772,0.7812197208404541,0.2238819450139999
2023-11-30 19:51:11.070751700,10.075751708984376,-1.9060869216918943,1.6141571998596191,-0.8879960775375366,-0.6336958408355713,0.0799469277262687,0.2116646468639373
2023-11-30 19:51:11.089353500,10.094353515625,-2.8185484409332275,0.6215057373046875,0.4679561555385589,-0.7961859107017517,-0.3391063213348388,0.1750127524137497
2023-11-30 19:51:11.107955200,10.112955078125,-3.340564250946045,-0.4212675094604492,1.3542284965515137,-0.799240231513977,-0.3192532062530517,0.2474002391099929
2023-11-30 19:51:11.126557000,10.131556884765626,-3.070368766784668,-0.5862216949462891,0.9431490898132324,-0.7005855441093445,-0.2212094068527221,0.3194822669029236
2023-11-30 19:51:11.145158700,10.15015869140625,-2.328784465789795,0.3892297744750976,-0.0648905038833618,-0.5078576803207397,-0.4707476794719696,0.1579085439443588
2023-11-30 19:51:11.163760400,10.168760498046876,-1.4474010467529297,1.4127464294433594,0.4741780757904053,-0.2738964855670929,-0.6457604169845581,-0.0226019974797964
2023-11-30 19:51:11.182362000,10.187362060546874,-1.0451858043670654,2.2228798866271973,0.5272996425628662,-0.0408515818417072,-0.4548651874065399,-0.0974329337477684
2023-11-30 19:51:11.200963800,10.2059638671875,-0.7592313289642334,2.66477632522583,-0.1655203700065612,0.0639117285609245,-0.152487114071846,-0.1835648715496063
2023-11-30 19:51:11.219565600,10.224565673828126,-0.3883428573608398,2.420615673065185,-0.5393220782279968,-0.0970511436462402,0.1819613426923751,-0.2159406989812851
2023-11-30 19:51:11.238167300,10.243167236328125,-0.9469904899597168,2.748682975769043,-0.8387096524238586,-0.3673588037490845,0.5500074028968811,-0.1524107605218887
2023-11-30 19:51:11.256769000,10.26176904296875,-1.5367679595947266,3.643421173095703,-0.9560867547988892,-0.6092612743377686,0.8087086081504822,-0.0180205106735229
2023-11-30 19:51:11.275370800,10.280370849609374,-1.5317857265472412,4.538596153259277,-1.4214171171188354,-0.8087086081504822,0.8548288941383362,0.0427605360746383
2023-11-30 19:51:11.293972500,10.298972412109377,-0.5005664825439453,4.126933574676514,-1.667809009552002,-0.9217185974121094,0.6562978625297546,0.0387899130582809
2023-11-30 19:51:11.312574200,10.31757421875,1.148898363113403,2.480279922485352,-1.347551345825195,-0.8707113862037659,0.2277761995792389,0.1023198515176773
2023-11-30 19:51:11.331176000,10.336176025390625,3.386683225631714,-0.040985107421875,-1.3371899127960205,-0.3136027157306671,-0.4799106419086456,0.3197877109050751
2023-11-30 19:51:11.349777700,10.354777587890624,6.1790266036987305,-2.451859474182129,-1.238281011581421,0.829936146736145,-1.4255293607711792,0.3371973633766174
2023-11-30 19:51:11.368379400,10.37337939453125,9.12516975402832,-4.560629844665527,-0.1759984493255615,2.074267625808716,-2.002490997314453,0.1298087686300277
2023-11-30 19:51:11.386981400,10.3919814453125,11.693682670593262,-6.456391334533691,2.5748825073242188,2.423682451248169,-0.9939533472061156,0.0656679645180702
2023-11-30 19:51:11.405582800,10.410582763671876,9.44976806640625,-6.763959884643555,4.202725410461426,1.8616868257522583,0.3160461783409118,0.2327394783496856
2023-11-30 19:51:11.424184600,10.4291845703125,4.073276519775391,-4.727041244506836,4.693123817443848,0.986622989177704,0.4348593652248382,0.3390299379825592
2023-11-30 19:51:11.442786600,10.44778662109375,0.7818384170532227,-1.9754180908203125,5.176714897155762,0.2044106274843216,0.266566127538681,0.2528980076313019
2023-11-30 19:51:11.461388000,10.466387939453124,-1.1431374549865725,0.4295949935913086,5.047539710998535,-0.2442695498466491,0.1123227626085281,0.0708603113889694
2023-11-30 19:51:11.479990000,10.484989990234377,-1.9033265113830569,1.5072813034057615,5.287668228149414,-0.2002872824668884,0.1111010313034057,-0.0259617529809474
2023-11-30 19:51:11.498591700,10.503591796875,-0.5534582138061523,1.2438106536865234,5.062191486358643,0.0180968698114156,0.2549596726894378,0.1264490038156509
2023-11-30 19:51:11.517193200,10.522193115234376,0.759490966796875,0.532597541809082,3.760288238525391,0.1115591824054718,-0.0345902182161808,0.517707884311676
2023-11-30 19:51:11.535795200,10.540795166015624,1.0300540924072266,-0.2678213119506836,2.5021276473999023,0.0385608375072479,-0.988455593585968,1.2006547451019287
2023-11-30 19:51:11.554397000,10.55939697265625,-0.0573859214782714,-1.0170364379882812,0.0483333468437194,0.0776561871170997,-1.9441535472869875,1.839924693107605
2023-11-30 19:51:11.572998700,10.57799853515625,-0.3565101623535156,-0.9694538116455078,-0.9688141345977784,0.0110719241201877,-2.755992889404297,2.2669191360473637
2023-11-30 19:51:11.591600400,10.596600341796876,-1.470550537109375,-0.4521389007568359,-1.3465982675552368,-0.1727983802556991,-3.2404086589813232,2.346637010574341
2023-11-30 19:51:11.610202000,10.6152021484375,-2.5426487922668457,0.0730962753295898,-0.7368743419647217,-0.3539197742938995,-3.237048864364624,2.0891575813293457
2023-11-30 19:51:11.628803800,10.633803955078124,-2.7035133838653564,0.4315176010131836,0.1314117908477783,-0.4904480576515198,-2.712316036224365,1.6145156621932983
2023-11-30 19:51:11.647405600,10.652405517578124,-2.0775184631347656,0.6159305572509766,0.8690904378890991,-0.6248382925987244,-1.7126357555389404,1.0519092082977295
2023-11-30 19:51:11.666007300,10.67100732421875,-1.4950017929077148,0.6607370376586914,1.192241907119751,-0.6953932046890259,-0.5996401309967041,0.5320632457733154
2023-11-30 19:51:11.684609000,10.689609130859376,-0.9013674259185792,0.6870503425598145,0.9693783521652222,-0.5930733680725098,0.1963166743516922,0.0968220680952072
2023-11-30 19:51:11.703210800,10.708210693359376,-0.3269972801208496,0.8899345397949219,0.6724116802215576,-0.2506836354732513,0.4650971591472626,-0.1634063273668289
2023-11-30 19:51:11.721812500,10.7268125,0.1918320655822754,1.3577537536621094,0.3821597099304199,0.187611848115921,0.4052324295043945,-0.211359217762947
2023-11-30 19:51:11.740414200,10.745414306640624,0.2783284187316894,1.6539254188537598,-0.048297643661499,0.354683369398117,-0.0672714859247207,-0.1517999023199081
2023-11-30 19:51:11.759016000,10.764015869140623,-0.9087836742401124,1.6870465278625488,-0.4161237478256225,0.2816850244998932,-0.6283507943153381,-0.1441640853881836
2023-11-30 19:51:11.777617700,10.78261767578125,-2.993009567260742,1.7331089973449707,0.1354017257690429,0.2062432169914245,-0.8412371873855591,-0.1600465774536132
2023-11-30 19:51:11.796219400,10.801219482421876,-3.865882396697998,1.6882343292236328,0.9472444653511048,0.2612210512161255,-0.5480220913887024,-0.1963930279016494
2023-11-30 19:51:11.814821000,10.819821044921875,-3.910212755203247,1.6419992446899414,1.4643617868423462,0.4490619599819183,0.3087157905101776,-0.2232710719108581
2023-11-30 19:51:11.833422800,10.8384228515625,-3.196829319000244,1.660780906677246,1.780564546585083,0.6989056468009949,1.241811752319336,-0.2211330533027649
2023-11-30 19:51:11.852024600,10.857024658203123,-2.1316118240356445,2.067681312561035,1.7162765264511108,0.9664644598960876,1.5338051319122314,-0.3213148713111877
2023-11-30 19:51:11.870626300,10.875626220703126,-0.4043879508972168,1.953068733215332,1.5453945398330688,1.0929133892059326,0.696309506893158,-0.5497782826423645
2023-11-30 19:51:11.889228000,10.89422802734375,2.126708984375,0.452153205871582,1.554407835006714,0.8971312642097473,-0.6222421526908875,-0.8778126835823059
2023-11-30 19:51:11.907829800,10.912829833984375,4.490808486938477,-2.393228530883789,1.3738068342208862,0.3858374655246734,-0.7902299761772156,-0.92393296957016
2023-11-30 19:51:11.926431500,10.931431396484374,6.242036819458008,-4.898067474365234,1.1304117441177368,-0.018860450014472,0.1309541314840316,-0.5647444725036621
2023-11-30 19:51:11.945033200,10.950033203125,6.023372650146484,-5.598836898803711,-0.4635969400405884,-0.1462257504463195,-0.1191949918866157,-0.2941313982009887
2023-11-30 19:51:11.963635000,10.968635009765626,5.718529224395752,-3.69157600402832,0.2812803983688354,-0.2256381809711456,-0.5507709383964539,-0.0320704020559787
2023-11-30 19:51:11.982236700,10.987236572265624,3.351245403289795,-1.0988883972167969,0.7258403301239014,-0.3117701113224029,-0.9029344916343688,0.2525925934314728
2023-11-30 19:51:12.000838400,11.00583837890625,1.458892822265625,0.2168445587158203,0.6686123013496399,-0.3517817556858063,-1.2221113443374634,0.5403099060058594
2023-11-30 19:51:12.019440000,11.024440185546876,0.7105560302734375,0.6195812225341797,0.8201806545257568,-0.3313177824020386,-1.3629156351089478,0.805425226688385
2023-11-30 19:51:12.038041900,11.043041748046877,0.3745718002319336,0.6549167633056641,0.8837491273880005,-0.2787834107875824,-1.4096468687057495,0.99968022108078
2023-11-30 19:51:12.056643600,11.0616435546875,0.0502738952636718,0.5742850303649902,1.0106422901153564,-0.2503781914710998,-1.4823397397994995,1.103221774101257
2023-11-30 19:51:12.075245300,11.080245361328124,-0.3924069404602051,0.5359430313110352,1.0341806411743164,-0.2247218787670135,-1.5748857259750366,1.1102467775344849
2023-11-30 19:51:12.093847000,11.098846923828123,-0.6868143081665039,0.3983697891235351,1.193350315093994,-0.2418260872364044,-1.5947388410568235,1.036942958831787
2023-11-30 19:51:12.112448800,11.11744873046875,-0.973008155822754,0.2741718292236328,1.247164249420166,-0.2705367505550384,-1.5116612911224363,0.8915571570396423
2023-11-30 19:51:12.131050500,11.136050537109377,-1.1159725189208984,0.1118688583374023,1.298786163330078,-0.3032180070877075,-1.321376919746399,0.7257073521614075
2023-11-30 19:51:12.149652200,11.15465234375,-1.081484317779541,0.0912313461303711,1.2329950332641602,-0.354225218296051,-1.1222349405288696,0.5534434914588928
2023-11-30 19:51:12.168254000,11.17325390625,-1.069638729095459,0.2133522033691406,0.9660980701446532,-0.469678670167923,-0.8952987194061279,0.4040870368480682
2023-11-30 19:51:12.186855700,11.191855712890623,-1.053391456604004,0.4345626831054687,0.6941296458244324,-0.5906298756599426,-0.7157044410705566,0.3066541254520416
2023-11-30 19:51:12.205457400,11.21045751953125,-1.095005750656128,0.366220474243164,0.1204942464828491,-0.594295084476471,-0.6112465858459473,0.2577849328517914
2023-11-30 19:51:12.224059100,11.22905908203125,-0.6341533660888672,0.3516006469726562,-0.2038668990135193,-0.4721221029758453,-0.5730675458908081,0.3136790692806244
2023-11-30 19:51:12.242660900,11.247660888671875,-0.1373963356018066,0.6159534454345703,-0.8746854662895203,-0.4544070363044739,-0.6869937777519226,0.4657844007015228
2023-11-30 19:51:12.261262600,11.2662626953125,-0.3117427825927734,1.172877311706543,-1.496507167816162,-0.7115811109542847,-1.058094143867493,0.6982184648513794
2023-11-30 19:51:12.279864300,11.2848642578125,-1.9294567108154297,1.4165472984313965,-2.312905550003052,-0.8563560843467712,-1.1753802299499512,0.7550288438796997
2023-11-30 19:51:12.298466000,11.303466064453126,-2.194418430328369,1.2089014053344729,-2.221867561340332,-0.8502474427223206,-0.9942587614059448,0.6264418363571167
2023-11-30 19:51:12.317067800,11.32206787109375,-1.375509262084961,1.4218735694885254,-1.5392215251922607,-0.7595340013504028,-0.7346412539482117,0.4095848202705383
2023-11-30 19:51:12.335669500,11.34066943359375,-1.194571018218994,1.7728967666625977,-1.428276300430298,-0.5863538384437561,-0.4487565457820892,0.1206457912921905
2023-11-30 19:51:12.354271200,11.359271240234374,-0.799628734588623,1.7486906051635742,-1.3453941345214844,-0.4534907341003418,-0.1811977624893188,-0.1817322671413421
2023-11-30 19:51:12.372873000,11.377873046875,-0.2173109054565429,0.8676872253417969,-0.9610087275505066,-0.2253327518701553,-0.0947603955864906,-0.4269944727420807
2023-11-30 19:51:12.391474700,11.396474609375,0.7713699340820312,-0.2584524154663086,-0.6230629086494446,0.4108829200267792,-0.4169915616512298,-0.7672461867332458
2023-11-30 19:51:12.410076400,11.415076416015625,3.995240688323975,-2.3112525939941406,0.6117414236068726,1.043433427810669,-0.3791179656982422,-1.2412772178649902
2023-11-30 19:51:12.428678100,11.43367822265625,5.699594497680664,-3.714245796203613,3.034026622772217,1.0400736331939695,0.3026071488857269,-1.6435316801071167
2023-11-30 19:51:12.447279900,11.45227978515625,3.3985490798950195,-3.4157028198242188,4.358399391174316,0.3110065162181854,0.8261182308197021,-1.8518365621566768
2023-11-30 19:51:12.465881600,11.470881591796877,-0.5531368255615234,-2.3714113235473637,4.396297931671143,-0.7399863004684448,0.9815833568572998,-1.9245294332504272
2023-11-30 19:51:12.484483300,11.4894833984375,-2.6242330074310303,-1.6794023513793943,4.7108259201049805,-1.517006278038025,1.01304292678833,-1.8393138647079468
2023-11-30 19:51:12.503085000,11.5080849609375,-2.5149917602539062,-1.352400779724121,4.457167625427246,-1.6251293420791626,1.0606902837753296,-1.5784746408462524
2023-11-30 19:51:12.521686800,11.526686767578123,-0.5939593315124512,-1.0060462951660156,3.800726175308228,-1.1071161031723022,0.9516509771347046,-1.1001675128936768
2023-11-30 19:51:12.540288500,11.54528857421875,1.9163684844970703,-1.0348844528198242,2.648019313812256,-0.4629591405391693,0.4650971591472626,-0.4037816226482391
2023-11-30 19:51:12.558890200,11.56389013671875,2.7796638011932373,-0.880462646484375,1.1990829706192017,0.0327576249837875,-0.4145480990409851,0.4633409380912781
2023-11-30 19:51:12.577492000,11.582491943359376,1.7301080226898191,-0.4677295684814453,-0.4655719399452209,0.381866842508316,-1.424002170562744,1.2143992185592651
2023-11-30 19:51:12.596093700,11.60109375,0.5469827651977539,-0.0050115585327148,-1.4935674667358398,0.6607266068458557,-2.260581493377685,1.6068798303604126
2023-11-30 19:51:12.614695400,11.6196953125,-0.3265979290008545,0.6187047958374023,-1.0571218729019165,0.8839976787567139,-2.791423082351685,1.6856813430786133
2023-11-30 19:51:12.633297200,11.638297119140624,-0.8148133754730225,0.996196746826172,-0.0763522386550903,0.996702253818512,-2.8723626136779785,1.6218459606170654
2023-11-30 19:51:12.651899000,11.65689892578125,-1.283214092254639,1.0521812438964844,0.4149609804153442,0.8525381684303284,-2.4609451293945312,1.5335760116577148
2023-11-30 19:51:12.670500600,11.67550048828125,-2.1004323959350586,1.0082454681396484,0.4478685259819031,0.4050796926021576,-1.7917428016662598,1.4456114768981934
2023-11-30 19:51:12.689102300,11.694102294921874,-3.330475330352783,0.8576593399047852,0.3049206137657165,-0.188069999217987,-1.1448369026184082,1.2996147871017456
2023-11-30 19:51:12.707704000,11.7127041015625,-4.062264442443848,0.81231689453125,0.1859798431396484,-0.7219657897949219,-0.7340303659439087,1.0045671463012695
2023-11-30 19:51:12.726305800,11.731305908203124,-3.986182689666748,0.6398677825927734,0.5614097714424133,-0.9492074847221376,-0.5605447888374329,0.6490437984466553
2023-11-30 19:51:12.744907500,11.749907470703125,-2.700605630874634,0.82110595703125,1.03887939453125,-0.9043089747428894,-0.2731329202651977,0.4166097939014435
2023-11-30 19:51:12.763509200,11.76850927734375,-1.3015406131744385,1.5233154296875,0.7113043665885925,-0.7299070358276367,0.0805577933788299,0.3316995799541473
2023-11-30 19:51:12.782111000,11.787111083984374,-0.6347622871398926,2.447185039520264,0.0869224965572357,-0.5640572905540466,0.3646099269390106,0.2803869247436523
2023-11-30 19:51:12.800712700,11.805712646484375,-0.8298866748809814,2.941579818725586,-0.3463897705078125,-0.4082867503166199,0.7121919989585876,0.0897971242666244
2023-11-30 19:51:12.819314400,11.824314453125,-1.279087781906128,2.640625,0.2404705137014389,-0.3383427262306213,1.344131588935852,-0.1502727419137954
2023-11-30 19:51:12.837916200,11.842916259765625,-1.117501974105835,1.873776912689209,1.1311852931976318,-0.345062255859375,1.6578106880187988,-0.4263836145401001
2023-11-30 19:51:12.856518000,11.861517822265624,-0.7569284439086914,0.9093093872070312,1.7235045433044434,7.63580974307e-05,1.4036909341812134,-0.6896663308143616
2023-11-30 19:51:12.875119600,11.88011962890625,1.5137898921966553,-0.0144758224487304,1.8503109216690063,0.5724566578865051,1.0344231128692627,-0.7272345423698425
2023-11-30 19:51:12.893721300,11.898721435546875,4.316432952880859,-1.2974739074707031,1.0207483768463137,0.988455593585968,1.408577799797058,-0.4520399272441864
2023-11-30 19:51:12.912323000,11.917322998046876,4.210814476013184,-2.188673973083496,-1.6008634567260742,1.2101994752883911,3.1956627368927,-0.3051269650459289
2023-11-30 19:51:12.930924800,11.9359248046875,1.989020109176636,-3.4983835220336914,-3.859866142272949,1.1268163919448853,4.200840950012207,-0.5125155448913574
2023-11-30 19:51:12.949526500,11.954526611328124,-0.037245750427246,-4.60630989074707,-5.132355690002441,0.6106356978416443,3.211850643157959,-0.8768963813781738
2023-11-30 19:51:12.968128300,11.973128173828124,-1.7463459968566897,-4.94455623626709,-6.169040679931641,0.0242055170238018,2.116264581680298,-1.0033453702926636
2023-11-30 19:51:12.986730000,11.99172998046875,-3.4138388633728027,-3.709460258483887,-6.939396381378174,-0.3560578227043152,1.0784053802490234,-0.7241802215576172
2023-11-30 19:51:13.005331700,12.010331787109376,-3.9154372215271,-0.9439487457275392,-6.814488410949707,-0.4592939615249634,-0.1491273641586303,-0.3707949221134186
2023-11-30 19:51:13.023933400,12.028933349609376,-2.161301851272583,0.6319684982299805,-5.425569534301758,-0.3545306324958801,-1.1204023361206057,-0.0274889152497053
2023-11-30 19:51:13.042535200,12.04753515625,-0.4510433673858642,1.544133186340332,-3.775226831436157,-0.1807396113872528,-1.6075670719146729,0.3411679863929748
2023-11-30 19:51:13.061137000,12.066136962890624,0.5208289623260498,1.9809598922729488,-2.5058140754699707,0.017791436985135,-1.447825908660889,0.7535017132759094
2023-11-30 19:51:13.079738600,12.084738525390623,0.8494729995727539,2.014707088470459,-2.241938591003418,0.1915824711322784,-1.0431280136108398,1.0216712951660156
2023-11-30 19:51:13.098340400,12.10334033203125,1.1556458473205566,1.5770139694213867,-1.6324628591537476,0.2105192691087722,-0.8613957166671753,1.0552688837051392
2023-11-30 19:51:13.116942000,12.121942138671876,0.818239688873291,1.2219743728637695,-0.418983519077301,0.0938441008329391,-0.7789289355278015,0.9465349912643432
2023-11-30 19:51:13.135543800,12.140543701171875,0.0538508892059326,1.3338356018066406,0.3104997277259826,-0.1355356276035308,-0.608497679233551,0.896138608455658
2023-11-30 19:51:13.154145500,12.1591455078125,-0.6654052734375,1.4947748184204102,0.0313811302185058,-0.4962512850761413,-0.5306124091148376,0.9373720288276672
2023-11-30 19:51:13.172747300,12.177747314453123,-1.4056439399719238,1.7068595886230469,-0.9810744524002076,-0.945542335510254,-0.5981130003929138,0.997847616672516
2023-11-30 19:51:13.191349000,12.196348876953126,-2.0675718784332275,1.853632926940918,-1.5927162170410156,-1.370398759841919,-0.6964622139930725,1.0387755632400513
2023-11-30 19:51:13.209950700,12.21495068359375,-2.4200947284698486,1.7618417739868164,-1.7616090774536133,-1.6254348754882812,-0.766406238079071,1.0103703737258911
2023-11-30 19:51:13.228552400,12.233552490234375,-2.047301769256592,1.5035772323608398,-1.6367262601852417,-1.656894326210022,-0.7645736336708069,0.9404263496398926
2023-11-30 19:51:13.247154200,12.252154296875,-1.2152111530303955,1.6788740158081057,-1.4456987380981443,-1.5573234558105469,-0.7425824999809265,0.7809906005859375
2023-11-30 19:51:13.265756000,12.270755859375,-0.5306525230407715,2.525075435638428,-1.216174840927124,-1.3743693828582764,-0.4102720618247986,0.6258309483528137
2023-11-30 19:51:13.284357600,12.289357666015626,-0.4168806076049804,3.7890195846557617,-0.6920467615127563,-0.9574542045593262,0.0463493652641773,0.3213148713111877
2023-11-30 19:51:13.302959400,12.30795947265625,0.7222568988800049,3.305058479309082,-1.215890645980835,-0.3673588037490845,0.0478765256702899,-0.0681114196777343
2023-11-30 19:51:13.321560800,12.326560791015623,2.65874457359314,1.2685203552246094,-0.8719862699508667,0.4151589870452881,-0.3207803666591644,-0.2254091054201126
2023-11-30 19:51:13.340162800,12.345162841796874,3.591791868209839,-0.1912126541137695,-1.2296149730682373,1.4328596591949463,-0.9640209674835204,-0.232128620147705
2023-11-30 19:51:13.358764500,12.3637646484375,4.932604789733887,-1.7372169494628906,-1.3624716997146606,2.202854871749878,-1.818315386772156,-0.6142245531082153
2023-11-30 19:51:13.377366300,12.3823662109375,5.001412391662598,-5.421863555908203,-0.663567304611206,1.8589378595352173,-1.883677959442139,-1.7693698406219482
2023-11-30 19:51:13.395968000,12.400968017578125,2.211723804473877,-10.356322288513184,4.498959541320801,0.9188169836997986,0.4818959534168243,-1.961792230606079
2023-11-30 19:51:13.414569500,12.419569580078123,-3.5729055404663086,-10.357955932617188,5.147283554077148,0.3195586502552032,2.56402850151062,-1.396742343902588
2023-11-30 19:51:13.433171500,12.43817138671875,-3.422522783279419,-6.677826881408691,0.5273547172546387,0.0535270273685455,2.200563907623291,-0.7849612236022949
2023-11-30 19:51:13.451773000,12.45677294921875,-0.8368470668792725,-3.1707706451416016,-0.4302082061767578,-0.0041996953077614,0.807486891746521,0.1548542231321334
2023-11-30 19:51:13.470375000,12.475375,0.853154182434082,-0.8672361373901367,-3.0222601890563965,0.0016035200096666,-0.4765508770942688,1.0848958492279053
2023-11-30 19:51:13.488976400,12.493976318359374,1.035287380218506,1.0972785949707031,-5.214059352874756,0.1121700480580329,-1.2831978797912598,1.536324977874756
2023-11-30 19:51:13.507578000,12.512578125,1.2048490047454834,2.6824913024902344,-4.634612083435059,0.1802814751863479,-1.412090301513672,1.485623121261597
2023-11-30 19:51:13.526179800,12.531179931640626,1.4043970108032229,3.4519577026367188,-3.010589599609375,-0.0463493652641773,-0.940808117389679,1.2064579725265503
2023-11-30 19:51:13.544781600,12.549781494140625,1.023566722869873,3.278423309326172,-2.5200510025024414,-0.5545888543128967,-0.256334125995636,0.8084795475006104
2023-11-30 19:51:13.563383300,12.56838330078125,-0.7187168598175049,2.4947471618652344,-2.7902722358703613,-0.7436515092849731,-0.1778380125761032,0.4214966893196106
2023-11-30 19:51:13.581985000,12.586985107421874,-0.2425787448883056,2.163484573364258,-2.5041818618774414,-0.6911171674728394,-0.1249982044100761,0.2348775118589401
2023-11-30 19:51:13.600586800,12.605586669921877,0.3440866470336914,2.045826911926269,-2.7374863624572754,-0.5304597020149231,0.0857501402497291,0.0571158565580844
2023-11-30 19:51:13.619188500,12.6241884765625,-0.0533554553985595,1.4755210876464844,-2.651073932647705,-0.3615556061267853,0.4678460657596588,-0.1722638607025146
2023-11-30 19:51:13.637790200,12.642790283203125,-0.7745816707611084,0.7705211639404297,-1.5438543558120728,-0.5066359639167786,1.0164026021957395,-0.2079994529485702
2023-11-30 19:51:13.656392000,12.661391845703124,-2.4330334663391118,1.0362882614135742,-1.4387569427490234,-0.8267291188240051,0.9281326532363892,-0.1569922417402267
2023-11-30 19:51:13.674993700,12.67999365234375,-4.5204267501831055,1.3536310195922852,-1.5862646102905271,-1.1068105697631836,0.3875173330307007,-0.0342084281146526
2023-11-30 19:51:13.693595400,12.698595458984377,-4.178340911865234,1.9696617126464844,-0.7726030349731445,-1.326111078262329,0.1584430485963821,0.1069013327360153
2023-11-30 19:51:13.712197000,12.717197021484376,-4.2981462478637695,3.329662322998047,-0.4100867509841919,-1.184695839881897,0.1636354029178619,0.106595903635025
2023-11-30 19:51:13.730798800,12.735798828125,-3.983234643936157,4.566651344299316,0.2431575059890747,-0.6868410706520081,0.6196459531784058,0.0888808220624923
2023-11-30 19:51:13.749400600,12.754400634765624,-2.17587947845459,5.81241512298584,1.01778244972229,0.1231656074523925,1.344131588935852,0.3561341762542724
2023-11-30 19:51:13.768002300,12.773002197265624,0.4433481693267822,6.239115715026856,0.1909874677658081,1.128954529762268,2.1907901763916016,0.7040216326713562
2023-11-30 19:51:13.786604000,12.79160400390625,2.7728047370910645,4.804289817810059,-0.6827448606491089,2.1680355072021484,2.0337979793548584,0.517707884311676
2023-11-30 19:51:13.805205800,12.810205810546876,4.98166561126709,1.1540136337280271,-0.6258809566497803,3.4154212474823,-0.1598175019025802,-0.8674280047416687
2023-11-30 19:51:13.823807500,12.828807373046876,9.19350242614746,-4.31688404083252,2.114910364151001,3.685423612594605,-1.1879029273986816,-2.089462995529175
2023-11-30 19:51:13.842409200,12.8474091796875,12.88347053527832,-8.853364944458008,2.728034496307373,2.605414628982544,1.250363826751709,-1.995695233345032
2023-11-30 19:51:13.861011000,12.866010986328124,7.097822189331055,-8.978456497192383,-4.616843223571777,1.22638738155365,3.709399938583374,-1.8014402389526367
2023-11-30 19:51:13.879612700,12.88461279296875,3.969832420349121,-7.818907737731934,-6.544094085693359,0.2545015513896942,3.8761661052703857,-1.8457279205322263
2023-11-30 19:51:13.898214400,12.90321435546875,2.229478359222412,-4.389887809753418,-3.97456169128418,-0.1065195426344871,3.1767258644104004,-1.6618576049804688
2023-11-30 19:51:13.916816100,12.921816162109376,1.6477575302124023,-1.0390491485595703,-3.276402711868286,-0.052152581512928,2.354196548461914,-1.2461642026901243
2023-11-30 19:51:13.935417900,12.94041796875,1.582380771636963,0.6570205688476562,-3.415991306304932,0.117667831480503,1.6061925888061523,-0.7073814272880554
2023-11-30 19:51:13.954019600,12.95901953125,1.008502960205078,1.177067756652832,-3.455498218536377,0.362930029630661,0.6266708970069885,-0.3436114490032196
2023-11-30 19:51:13.972621300,12.977621337890625,0.8172087669372559,1.1217689514160156,-2.9813907146453857,0.6610320210456848,-0.3806451261043548,-0.2510654330253601
2023-11-30 19:51:13.991223000,12.99622314453125,1.1039886474609375,0.2525539398193359,-1.726340651512146,0.9020181894302368,-0.8986584544181824,-0.3213148713111877
2023-11-30 19:51:14.009824800,13.01482470703125,1.0689096450805664,-0.6738252639770508,-1.2065742015838623,0.692186176776886,-1.19156813621521,-0.5571087002754211
2023-11-30 19:51:14.028426200,13.03342626953125,-0.9157671928405762,-0.7570285797119141,-0.0923049449920654,0.2792415618896484,-0.6747764945030212,-0.6450732350349426
2023-11-30 19:51:14.047028200,13.0520283203125,-2.8042995929718018,0.4740009307861328,-0.5969451665878296,-0.0478765256702899,0.1636354029178619,-0.7538071274757385
2023-11-30 19:51:14.065629700,13.070629638671877,-2.8126187324523926,1.7145071029663086,-0.8687800765037537,-0.3557523787021637,0.6825650334358215,-0.9324851036071776
2023-11-30 19:51:14.084231700,13.089231689453126,-2.075382709503174,2.847170829772949,-0.4949251413345337,-0.658741295337677,0.9840267896652222,-1.1102467775344849
2023-11-30 19:51:14.102833200,13.107833251953124,-1.9034690856933596,3.887949943542481,-0.369082510471344,-0.8597158193588257,1.1239148378372192,-1.2550216913223269
2023-11-30 19:51:14.121435000,13.126434814453123,-1.6095457077026367,4.671769618988037,-0.4814719557762146,-0.8859829902648926,1.01945698261261,-1.3655881881713867
2023-11-30 19:51:14.140036600,13.14503662109375,-0.8698239326477051,5.196439743041992,-0.4431153535842895,-0.7674752473831177,0.871627688407898,-1.4001020193099976
2023-11-30 19:51:14.158638300,13.163638427734377,-0.3882870674133301,5.598077774047852,-0.4304726123809814,-0.50144362449646,0.9708932042121888,-1.2724313735961914
2023-11-30 19:51:14.177240000,13.182239990234375,-0.119401216506958,5.8693060874938965,-0.8558121919631958,-0.1392008066177368,0.982805073261261,-1.0916153192520142
2023-11-30 19:51:14.195841800,13.200841796875,1.2133324146270752,4.77606201171875,-1.1564888954162598,0.2450331300497055,0.8038216829299927,-0.8478803038597107
2023-11-30 19:51:14.214443500,13.219443603515623,2.42508602142334,3.5226149559021,-0.843859076499939,0.7584649920463562,0.7848848700523376,-0.5439751148223877
2023-11-30 19:51:14.233045200,13.238045166015626,2.675734043121338,3.929397583007813,-0.8646978139877319,1.33695387840271,0.9385173916816713,-0.2122755050659179
2023-11-30 19:51:14.251647000,13.25664697265625,2.80239486694336,4.480971336364746,-0.5448415875434875,1.923995018005371,1.1013128757476809,0.1062904745340347
2023-11-30 19:51:14.270248700,13.275248779296875,3.5447826385498047,2.619112968444824,-0.3133976459503174,2.5198936462402344,0.9809724688529968,0.2623664140701294
2023-11-30 19:51:14.288850400,13.293850341796874,6.252657890319824,-1.485550880432129,0.7529308199882507,2.7880632877349854,-0.0871245861053466,0.1432477980852127
2023-11-30 19:51:14.307452200,13.3124521484375,8.877861022949219,-6.296145439147949,2.3133718967437744,2.3387720584869385,-0.3155880272388458,-0.0482583157718181
2023-11-30 19:51:14.326054000,13.331053955078126,10.27596664428711,-9.55039405822754,3.247455358505249,0.8531489968299866,0.7912989854812622,-0.2748891413211822
2023-11-30 19:51:14.344655600,13.349655517578125,5.237560272216797,-9.807703018188477,4.981487274169922,-1.2161554098129272,1.500512957572937,-0.6560688018798828
2023-11-30 19:51:14.363257300,13.36825732421875,-5.9249701499938965,-8.675117492675781,7.254392147064209,-1.980347275733948,2.2356886863708496,-0.591622531414032
2023-11-30 19:51:14.381859000,13.386859130859374,-6.7808685302734375,-6.828090667724609,4.980759620666504,-1.8215223550796509,1.9110140800476076,0.0589484497904777
2023-11-30 19:51:14.400460800,13.405460693359377,-3.6897919178009033,-3.4876632690429688,0.7441983222961426,-1.2427279949188232,0.936990201473236,0.7819069027900696
2023-11-30 19:51:14.419062500,13.4240625,-1.9959969520568848,-0.7013731002807617,-1.1652743816375732,-0.4886154532432556,-0.1482110619544983,1.3185516595840454
2023-11-30 19:51:14.437664300,13.442664306640625,-1.020768642425537,1.2833118438720703,-0.6456884145736694,0.2658025324344635,-0.692186176776886,1.6523892879486084
2023-11-30 19:51:14.456266000,13.461265869140624,-1.0705547332763672,2.156038284301758,-0.0104624032974243,0.8598685264587402,-0.6756927967071533,1.7351614236831665
2023-11-30 19:51:14.474867700,13.47986767578125,-1.555675983428955,2.131510734558105,0.9873245358467102,1.1909571886062622,-0.3223075270652771,1.6676608324050903
2023-11-30 19:51:14.493469400,13.498469482421877,-1.8947336673736568,1.420461654663086,1.9371697902679443,1.1234567165374756,0.1935677826404571,1.5250239372253418
2023-11-30 19:51:14.512071200,13.5170712890625,-2.0192618370056152,0.4959516525268554,2.33324670791626,0.6378191709518433,0.5878809690475464,1.3099994659423828
2023-11-30 19:51:14.530673000,13.5356728515625,-2.137495517730713,-0.1154966354370117,2.375018835067749,-0.0949131175875663,0.5170207023620605,0.99968022108078
2023-11-30 19:51:14.549274400,13.5542744140625,-1.9330544471740725,-0.0068211555480957,2.176814556121826,-0.7183006405830383,0.4727329909801483,0.6533198952674866
2023-11-30 19:51:14.567876400,13.57287646484375,-1.4429843425750732,0.6138453483581543,2.1159439086914062,-0.9357684850692748,0.715246319770813,0.4279107749462127
2023-11-30 19:51:14.586477800,13.591477783203125,-1.2491190433502195,1.7988476753234863,1.8150877952575684,-0.7589231133460999,0.7467058300971985,0.2498437017202377
2023-11-30 19:51:14.605079800,13.610079833984376,-0.6292252540588379,2.7899112701416016,1.9244115352630613,-0.3484219908714294,0.6440805792808533,0.1322522312402725
2023-11-30 19:51:14.623681300,13.628681396484374,-0.1048474311828613,3.2902607917785645,2.053568124771118,0.0116827888414263,0.6211731433868408,0.1047633066773414
2023-11-30 19:51:14.642283000,13.647282958984375,-0.6238584518432617,3.6684398651123047,1.882422924041748,0.2233474403619766,0.9165262579917908,0.2055560052394867
2023-11-30 19:51:14.660884700,13.665884765625,-1.5714759826660156,3.9337000846862793,1.1996886730194092,0.3189477622509002,1.1443787813186646,0.12553271651268
2023-11-30 19:51:14.679486500,13.684486572265625,-1.2996907234191897,3.5492067337036133,0.6821496486663818,0.3586539924144745,0.925994634628296,-0.1905898153781891
2023-11-30 19:51:14.698088200,13.703088134765624,1.364321231842041,1.8757867813110352,1.0189404487609863,0.2911534309387207,0.1593593508005142,-0.7003564834594727
2023-11-30 19:51:14.716690000,13.72168994140625,3.467679500579834,-1.0659265518188477,0.5740523338317871,0.6607266068458557,-1.4618757963180542,-1.4691298007965088
2023-11-30 19:51:14.735291600,13.740291748046875,8.518797874450684,-5.454809188842773,1.5093340873718262,1.1332305669784546,-1.587103009223938,-1.925445795059204
2023-11-30 19:51:14.753893400,13.758893310546876,12.380002975463867,-9.22186279296875,2.466636657714844,1.1210132837295532,0.1688277572393417,-1.7354668378829956
2023-11-30 19:51:14.772495000,13.7774951171875,10.120203971862791,-8.899038314819336,1.549846053123474,0.7099012136459351,0.8365029692649841,-1.4645483493804932
