time,seconds_elapsed,z,y,x,gyro_x,gyro_y,gyro_z
2023-11-30 19:49:35.401590800,0.0575908203125,0.0,0.0,0.0,-0.065286174416542,-0.025427246466279,-0.0384081229567527
2023-11-30 19:49:35.420192500,0.076192626953125,-0.0954785346984863,0.0808038711547851,0.0849342346191406,-0.0500145554542541,0.0029779658652842,-0.0552069060504436
2023-11-30 19:49:35.438794500,0.09479443359375,-0.090461254119873,0.0950374603271484,0.1530563831329345,-0.021609341725707,0.0277179889380931,-0.0717002525925636
2023-11-30 19:49:35.457396500,0.113396484375,-0.0570979118347168,0.045328140258789,0.0458225011825561,0.025427246466279,0.0268016923218965,-0.0662024691700935
2023-11-30 19:49:35.475998500,0.13199853515625,-0.0445766448974609,-0.0308647155761718,-0.2137047052383422,0.0138208158314228,0.171882078051567,-0.0839175507426261
2023-11-30 19:49:35.494600200,0.15060009765625,-0.2750964164733886,0.0155105590820312,-0.3053178787231445,-0.0884990319609642,0.3340666890144348,-0.1535561382770538
2023-11-30 19:49:35.513202200,0.1692021484375,-0.4937460422515869,0.1345844268798828,-0.0104454755783081,-0.367969661951065,0.5463421940803528,-0.2299142330884933
2023-11-30 19:49:35.531804200,0.18780419921875,-0.4308671951293945,0.1288108825683593,0.0872482061386108,-0.6639336347579956,0.8294780254364014,-0.3453676700592041
2023-11-30 19:49:35.550406100,0.20640625,-0.2438466548919677,0.1418294906616211,-0.0162546634674072,-0.6065123677253723,0.7118865251541138,-0.4348593652248382
2023-11-30 19:49:35.569007900,0.2250078125,0.7973189353942871,0.2541685104370117,-0.0870616436004638,-0.2873355150222778,0.377743512392044,-0.4461603760719299
2023-11-30 19:49:35.587609900,0.24360986328125,1.9087538719177248,0.1832561492919922,-0.1660205125808715,0.0507781356573104,0.1559995859861374,-0.3942368626594543
2023-11-30 19:49:35.606211800,0.2622119140625,2.1634230613708496,-0.0061244964599609,-0.0389943122863769,0.176005408167839,0.1193477064371109,-0.3383427262306213
2023-11-30 19:49:35.624813800,0.280813720703125,1.3823614120483398,-0.1927661895751953,0.2505891323089599,0.0746018588542938,0.1581376194953918,-0.3001636862754822
2023-11-30 19:49:35.643415600,0.29941552734375,0.2020411491394043,-0.307866096496582,0.5834025144577026,-0.0976620092988014,0.1523344069719314,-0.252210795879364
2023-11-30 19:49:35.662017500,0.318017578125,-0.3557906150817871,-0.4983453750610351,0.6327698826789856,-0.2390772104263305,0.125761792063713,-0.1657734364271164
2023-11-30 19:49:35.680619500,0.33661962890625,-0.3470578193664551,-0.6507024765014648,0.3620071411132812,-0.3139081299304962,0.0744491443037986,-0.0545960403978824
2023-11-30 19:49:35.699221500,0.355221435546875,-0.2643642425537109,-0.5546360015869141,0.0178116559982299,-0.3187950551509857,0.0151952616870403,0.0223729219287633
2023-11-30 19:49:35.717823500,0.373823486328125,-0.2686858177185058,-0.1522760391235351,-0.1217994689941406,-0.2980256676673889,0.0109192077070474,0.0917060747742652
2023-11-30 19:49:35.736425200,0.39242529296875,-0.2295794486999511,0.3185567855834961,-0.252312421798706,-0.3136027157306671,0.0466547980904579,0.1152243688702583
2023-11-30 19:49:35.755027200,0.411027099609375,-0.2855792045593261,0.4189662933349609,-0.5939239263534546,-0.3688859641551971,0.1810450553894043,0.0602465383708477
2023-11-30 19:49:35.773629200,0.429629150390625,-0.3767886161804199,0.5102367401123047,-0.5595822334289551,-0.4360810816287994,0.3447568118572235,-0.0228310711681842
2023-11-30 19:49:35.792231200,0.448231201171875,-0.4809849262237549,0.7763233184814453,-0.6647520065307617,-0.4544070363044739,0.3869064748287201,-0.1007163301110267
2023-11-30 19:49:35.810833000,0.4668330078125,-0.4806218147277832,0.9437055587768556,-0.8358228206634521,-0.3667479455471039,0.2512944936752319,-0.1382845193147659
2023-11-30 19:49:35.829435000,0.485434814453125,-0.1238367557525634,0.7997550964355469,-1.0899163484573364,-0.1755472719669342,0.0597883909940719,-0.1312595754861831
2023-11-30 19:49:35.848036900,0.504036865234375,0.1574456691741943,0.570927619934082,-1.316371202468872,0.0877354517579078,-0.1436295807361602,-0.1373682171106338
2023-11-30 19:49:35.866638600,0.522638671875,0.3226208686828613,0.2911558151245117,-1.299466252326965,0.3262781500816345,-0.25266894698143,-0.1749363988637924
2023-11-30 19:49:35.885240600,0.541240478515625,0.3495912551879883,0.0401201248168945,-1.0452415943145752,0.4536434710025787,-0.1845575273036956,-0.2467130124568939
2023-11-30 19:49:35.903842600,0.559842529296875,-0.0647389888763427,-0.0587491989135742,-0.6944655179977417,0.4264599680900574,-0.1106428802013397,-0.3233765363693237
2023-11-30 19:49:35.922444500,0.578444580078125,-0.5501117706298828,-0.0435981750488281,-0.3845372200012207,0.2774089574813843,-0.0859028622508049,-0.3951531648635864
2023-11-30 19:49:35.941046500,0.597046630859375,-0.8570513725280762,-0.0570259094238281,-0.144539475440979,0.0504727028310298,-0.0022143847309052,-0.4232529401779175
2023-11-30 19:49:35.959648500,0.6156484375,-1.0235469341278076,-0.1145830154418945,0.0321317911148071,-0.1630245447158813,0.1263726502656936,-0.3594175577163696
2023-11-30 19:49:35.978250200,0.634250244140625,-1.096064567565918,-0.0217771530151367,0.0391873121261596,-0.2726747691631317,0.1150716543197631,-0.2390772104263305
2023-11-30 19:49:35.996852200,0.652852294921875,-0.7637784481048584,0.1748723983764648,-0.0470480918884277,-0.2668715417385101,-0.0345902182161808,-0.1104901656508445
2023-11-30 19:49:36.015454200,0.6714541015625,-0.2824256420135498,0.3529024124145508,0.0240421295166015,-0.2366337478160858,-0.1839466542005539,0.0104610593989491
2023-11-30 19:49:36.034056200,0.69005615234375,-0.1023786067962646,0.4539318084716797,0.0530264377593994,-0.2787834107875824,-0.2816850244998932,0.1201112866401672
2023-11-30 19:49:36.052658000,0.708657958984375,-0.3424704074859619,0.3003692626953125,-0.0649023056030273,-0.4143953919410705,-0.399887353181839,0.2062432169914245
2023-11-30 19:49:36.071260000,0.727260009765625,-0.7278258800506592,-0.0863399505615234,-0.3092093467712402,-0.5784125924110413,-0.5522981286048889,0.2658025324344635
2023-11-30 19:49:36.089862000,0.74586181640625,-0.9583120346069336,-0.5326194763183594,-0.5859453678131104,-0.7011964321136475,-0.6845503449440002,0.2923751473426819
2023-11-30 19:49:36.108463900,0.7644638671875,-0.967613935470581,-0.9054927825927734,-0.8382636308670044,-0.7549524903297424,-0.7554106712341309,0.2816850244998932
2023-11-30 19:49:36.127065600,0.783065673828125,-0.8858320713043213,-1.0193185806274414,-0.9235554933547974,-0.7436515092849731,-0.7358629703521729,0.257250428199768
2023-11-30 19:49:36.145667600,0.80166748046875,-0.8893983364105225,-0.8600502014160156,-0.9864065647125244,-0.6880627870559692,-0.6381246447563171,0.2196822464466095
2023-11-30 19:49:36.164269600,0.82026953125,-0.9136569499969482,-0.5328197479248047,-1.029679298400879,-0.60406893491745,-0.5183951258659363,0.1619555205106735
2023-11-30 19:49:36.182871300,0.838871337890625,-0.9868607521057128,-0.1252059936523437,-0.9493530988693236,-0.4846448302268982,-0.418824166059494,0.0975092872977256
2023-11-30 19:49:36.201473300,0.857473388671875,-0.9574747085571288,0.1368570327758789,-0.7779932022094727,-0.3404807448387146,-0.3650680780410766,0.0345902182161808
2023-11-30 19:49:36.220075300,0.8760751953125,-0.7389259338378906,0.3804531097412109,-0.6206161975860596,-0.2143371850252151,-0.2929860055446625,-0.0103083429858088
2023-11-30 19:49:36.238677200,0.89467724609375,-0.6127758026123047,0.6033706665039062,-0.4825437068939209,-0.1398116797208786,-0.2309832423925399,-0.062537282705307
2023-11-30 19:49:36.257279200,0.913279296875,-0.5133588314056396,0.6310148239135742,-0.4412147998809814,-0.1211803033947944,-0.1836412250995636,-0.1297324001789093
2023-11-30 19:49:36.275881200,0.931881103515625,-0.2690560817718506,0.2553825378417969,-0.4082061052322387,-0.1462257504463195,-0.1283579617738723,-0.1883754283189773
2023-11-30 19:49:36.294483000,0.95048291015625,0.1037855148315429,-0.4558773040771484,-0.593830943107605,-0.1618028134107589,-0.1497382223606109,-0.2491564750671386
2023-11-30 19:49:36.313085000,0.9690849609375,0.5412962436676025,-1.3269615173339844,-0.6635382175445557,-0.050625417381525,-0.289626270532608,-0.2827540338039398
2023-11-30 19:49:36.331687000,0.98768701171875,1.2572784423828125,-1.8140945434570312,-0.5594122409820557,0.1811977624893188,-0.5095375776290894,-0.2402989268302917
2023-11-30 19:49:36.350289000,1.006288818359375,1.8986616134643557,-1.5517902374267578,-0.5922961235046387,0.4533380270004272,-0.6897426843643188,-0.151112675666809
2023-11-30 19:49:36.368890600,1.024890625,2.0204129219055176,-0.9321222305297852,-0.8032957315444946,0.6759982109069824,-0.7361684441566467,-0.1227074638009071
2023-11-30 19:49:36.387492600,1.04349267578125,1.8375604152679443,-0.6143941879272461,-0.6199432611465454,0.746858537197113,-0.5413025617599487,-0.1929569095373153
2023-11-30 19:49:36.406094600,1.062094482421875,1.338911533355713,-0.4391565322875976,-0.0017378330230712,0.636292040348053,-0.128052532672882,-0.3264308571815491
2023-11-30 19:49:36.424696600,1.080696533203125,0.4650933742523193,0.0739259719848632,0.6953564882278442,0.4285979866981506,0.2461021542549133,-0.4803687930107116
2023-11-30 19:49:36.443298300,1.09929833984375,-0.3917999267578125,0.8709259033203125,1.388582468032837,0.2856556475162506,0.423863798379898,-0.5881864428520203
2023-11-30 19:49:36.461900300,1.117900390625,-0.3185107707977295,1.1277313232421875,1.7055280208587646,0.241062507033348,0.4278344213962555,-0.5985711216926575
2023-11-30 19:49:36.480502300,1.136502197265625,0.5096712112426758,0.7301254272460938,1.6221835613250732,0.2312886714935302,0.2390772104263305,-0.4757873117923736
2023-11-30 19:49:36.499104300,1.155104248046875,1.0500082969665527,0.673670768737793,1.3581221103668213,0.2340375632047653,-0.235564723610878,-0.2305250912904739
2023-11-30 19:49:36.517706000,1.1737060546875,1.293668270111084,0.9204492568969728,0.8881642818450928,0.2584721744060516,-0.7267000079154968,0.0556650534272193
2023-11-30 19:49:36.536308000,1.192307861328125,1.4767260551452637,1.0763177871704102,0.7246708869934082,0.2346484363079071,-0.8769727349281311,0.2630536556243896
2023-11-30 19:49:36.554910000,1.210909912109375,1.2165799140930176,0.974956512451172,1.1346640586853027,0.1311068534851074,-0.7117338180541992,0.3775908052921295
2023-11-30 19:49:36.573512000,1.229511962890625,0.3802268505096435,0.7968711853027344,1.7854018211364746,0.0309250298887491,-0.5480220913887024,0.4194350242614746
2023-11-30 19:49:36.592114000,1.248114013671875,-0.3772437572479248,0.5652923583984375,2.1464953422546387,0.0235946513712406,-0.4866301417350769,0.4563923478126526
2023-11-30 19:49:36.610716000,1.2667158203125,-0.5626087188720703,0.1506452560424804,1.9240951538085935,0.0904843434691429,-0.4924333691596985,0.5199222564697266
2023-11-30 19:49:36.629317600,1.285317626953125,-0.5468919277191162,-0.0766630172729492,1.3428723812103271,0.1799760311841964,-0.5324450135231018,0.6133846044540405
2023-11-30 19:49:36.647919600,1.303919677734375,-0.5555403232574463,-0.1275367736816406,0.6068929433822632,0.1928042024374008,-0.6121628880500793,0.6698895692825317
2023-11-30 19:49:36.666521600,1.322521484375,-0.8442296981811523,0.0209131240844726,0.1140944957733154,0.1094211563467979,-0.6677515506744385,0.6506473422050476
2023-11-30 19:49:36.685123600,1.34112353515625,-1.2609829902648926,0.1993627548217773,-0.0117822289466857,-0.0228310711681842,-0.6527853608131409,0.5391645431518555
2023-11-30 19:49:36.703725300,1.359725341796875,-1.488603115081787,0.2131500244140625,0.0823634266853332,-0.1471420526504516,-0.5187005400657654,0.3540725111961365
2023-11-30 19:49:36.722327300,1.378327392578125,-1.5433661937713623,0.2004108428955078,0.3891205191612243,-0.2418260872364044,-0.2441168427467346,0.2041051983833313
2023-11-30 19:49:36.740929300,1.39692919921875,-1.672621488571167,0.3617162704467773,0.6194517016410828,-0.3111592531204223,-0.0770453214645385,0.1405752599239349
2023-11-30 19:49:36.759531300,1.41553125,-1.7713701725006104,0.4923133850097656,0.5166450142860413,-0.3948477208614349,-0.1164461001753807,0.1674533039331436
2023-11-30 19:49:36.778133000,1.434133056640625,-1.7928814888000488,0.4179954528808594,0.3442760109901428,-0.5133554935455322,-0.2260963320732116,0.2621373534202575
2023-11-30 19:49:36.796735000,1.45273486328125,-1.9340860843658447,0.2475919723510742,0.1395719051361084,-0.6242274641990662,-0.2709949016571045,0.3736201822757721
2023-11-30 19:49:36.815337000,1.4713369140625,-1.916553735733032,0.0061702728271484,0.0852425098419189,-0.6675988435745239,-0.270689457654953,0.4463130831718445
2023-11-30 19:49:36.833939000,1.48993896484375,-1.4999185800552368,-0.2281360626220703,0.1803532838821411,-0.6330850124359131,-0.2490037530660629,0.4646390080451965
2023-11-30 19:49:36.852540700,1.508540771484375,-0.9928667545318604,-0.2726221084594726,0.3362278938293457,-0.5463421940803528,-0.2300669401884079,0.4472293853759765
2023-11-30 19:49:36.871142700,1.527142578125,-0.6552407741546631,-0.3290328979492187,0.378872811794281,-0.4403571486473083,-0.1677587330341339,0.3833940029144287
2023-11-30 19:49:36.889744600,1.54574462890625,-0.5007128715515137,-0.5843038558959961,0.5237080454826355,-0.3023017048835754,0.1908188909292221,0.3039815723896026
2023-11-30 19:49:36.908346600,1.5643466796875,-0.2786335945129394,-1.1470327377319336,0.7446171045303345,-0.1993709951639175,0.7350993752479553,0.260915607213974
2023-11-30 19:49:36.926948600,1.582948486328125,0.3983807563781738,-1.9770374298095703,0.5685958862304688,-0.0384081229567527,1.168202519416809,0.2004400044679641
2023-11-30 19:49:36.945550300,1.60155029296875,1.38397216796875,-2.607548713684082,0.0881427526473999,0.279852420091629,1.2705223560333252,0.0226783547550439
2023-11-30 19:49:36.964152300,1.62015234375,3.3564047813415527,-3.3033876419067383,-0.0584621429443359,0.5080104470252991,1.0402263402938845,-0.3154352903366089
2023-11-30 19:49:36.982754300,1.63875439453125,4.526041030883789,-3.8398942947387695,0.0402988195419311,0.4667770564556122,0.8688787817955017,-0.7164680361747742
2023-11-30 19:49:37.001356300,1.657356201171875,4.149477958679199,-3.2301101684570312,0.3075437545776367,0.2893208265304565,1.0719913244247437,-0.9058361053466796
2023-11-30 19:49:37.019958000,1.6759580078125,2.789824962615967,-1.413522720336914,0.0305664539337158,0.1665370166301727,1.2830450534820557,-0.8985057473182678
2023-11-30 19:49:37.038560000,1.69456005859375,1.935166358947754,0.2799644470214844,-0.6121599674224854,0.1066722646355629,1.2176826000213623,-0.8087086081504822
2023-11-30 19:49:37.057162000,1.713161865234375,1.7945213317871094,0.9726505279541016,-1.0197149515151978,0.0709366723895073,0.9244675040245056,-0.6941714882850647
2023-11-30 19:49:37.075764000,1.731763916015625,1.7274231910705566,1.2426490783691406,-1.213224172592163,0.0419205948710441,0.6156753301620483,-0.5478693246841431
2023-11-30 19:49:37.094365700,1.75036572265625,1.545605182647705,1.4308838844299316,-1.3248438835144043,0.0523052960634231,0.3682751059532165,-0.3762163519859314
2023-11-30 19:49:37.112967700,1.7689677734375,1.3055205345153809,1.589582443237305,-1.373671293258667,0.1121700480580329,0.1700494885444641,-0.2357174456119537
2023-11-30 19:49:37.131569700,1.787569580078125,0.9707746505737304,1.9610538482666016,-1.2155539989471436,0.2328158318996429,0.0130572346970438,-0.151112675666809
2023-11-30 19:49:37.150171600,1.806171630859375,0.6700191497802734,2.382780075073242,-0.9012811183929444,0.3895026445388794,-0.1048396676778793,-0.1541669964790344
2023-11-30 19:49:37.168773400,1.8247734375,0.5032985210418701,2.559361457824707,-0.4918307065963745,0.5220603346824646,-0.0834593996405601,-0.2305250912904739
2023-11-30 19:49:37.187375400,1.843375244140625,0.2244894504547119,2.450606346130371,-0.0374386310577392,0.5785652995109558,0.151112675666809,-0.3136027157306671
2023-11-30 19:49:37.205977300,1.861977294921875,-0.1247925758361816,2.130101203918457,0.0981965065002441,0.5284743905067444,0.3719402849674225,-0.4098139107227325
2023-11-30 19:49:37.224579300,1.880579345703125,-0.3904216289520263,1.5707941055297852,0.0699208378791809,0.4395935535430908,0.3853793144226074,-0.4776198863983154
2023-11-30 19:49:37.243181300,1.899181396484375,-0.483971357345581,0.9809913635253906,0.0152406692504882,0.3959167301654815,0.2879463732242584,-0.4208094775676727
2023-11-30 19:49:37.261783300,1.917783203125,-0.3291921615600586,0.4472484588623047,-0.3590139746665954,0.2835176289081573,0.0628427118062973,-0.2204458266496658
2023-11-30 19:49:37.280385000,1.936385009765625,-0.5823268890380859,0.0696678161621093,-0.8690157532691956,0.1140026375651359,-0.23648102581501,0.0608574040234088
2023-11-30 19:49:37.298987000,1.954987060546875,-1.329711675643921,-0.1543684005737304,-1.3659495115280151,-0.0597883909940719,-0.5379427671432495,0.2618319094181061
2023-11-30 19:49:37.317589000,1.973589111328125,-1.75049090385437,-0.2832765579223633,-1.3343985080718994,-0.2265544682741165,-0.6607266068458557,0.3134499788284302
2023-11-30 19:49:37.336191000,1.99219091796875,-1.9545385837554927,-0.3221378326416015,-0.9079533219337464,-0.3826304376125335,-0.5034289360046387,0.260915607213974
2023-11-30 19:49:37.354792700,2.010792724609375,-2.082951068878174,-0.1857528686523437,-0.6897141933441162,-0.4825068116188049,-0.169591337442398,0.1417969912290573
2023-11-30 19:49:37.373394700,2.029394775390625,-1.9467027187347408,0.0561761856079101,-0.7763631343841553,-0.4779253304004669,0.1074358448386192,-0.0161115583032369
2023-11-30 19:49:37.391996700,2.04799658203125,-1.3717660903930664,0.2774581909179687,-0.8692193031311035,-0.4009563624858856,0.1639408320188522,-0.1486692130565643
2023-11-30 19:49:37.410598700,2.0665986328125,-0.7944929599761963,0.7609071731567383,-0.8069438338279724,-0.3132972717285156,0.0982728749513626,-0.1862373948097229
2023-11-30 19:49:37.429200400,2.085200439453125,-0.399874210357666,1.1785593032836914,-0.882061243057251,-0.266566127538681,0.0594829581677913,-0.1752418279647827
2023-11-30 19:49:37.447802400,2.10380224609375,-0.0391123294830322,0.939793586730957,-0.8819286227226257,-0.2900844216346741,0.1498909443616867,-0.1526398360729217
2023-11-30 19:49:37.466404400,2.122404296875,0.3384923934936523,0.2265233993530273,-0.7187215089797974,-0.409508466720581,0.2515999376773834,-0.1914297491312027
2023-11-30 19:49:37.485006300,2.14100634765625,1.1631505489349363,-1.2765731811523438,-0.6365914940834045,-0.5988765358924866,0.2919169962406158,-0.2247218787670135
2023-11-30 19:49:37.503608000,2.159608154296875,1.8328557014465328,-2.2942981719970703,-0.5527512431144714,-0.668515145778656,0.1159879490733146,-0.1621082425117492
2023-11-30 19:49:37.522210000,2.1782099609375,2.5616610050201416,-2.533719062805176,-0.8197252750396729,-0.4935023784637451,-0.1778380125761032,0.0263435430824756
2023-11-30 19:49:37.540812000,2.19681201171875,3.3170669078826904,-2.165660858154297,-1.155855655670166,-0.1541669964790344,-0.6222421526908875,0.1332448869943618
2023-11-30 19:49:37.559414000,2.2154140625,3.5269556045532227,-1.330439567565918,-0.711018443107605,0.2199876755475998,-1.0012837648391724,0.1350774765014648
2023-11-30 19:49:37.578016000,2.23401611328125,3.644477844238281,-1.1793174743652344,0.3356028199195862,0.4591412544250488,-1.0626755952835083,0.1500436663627624
2023-11-30 19:49:37.596617700,2.25261767578125,3.128884077072144,-0.8297319412231445,0.9489811062812804,0.5492438077926636,-0.6799688339233398,0.2343430072069168
2023-11-30 19:49:37.615219700,2.2712197265625,2.1147940158843994,-0.1889514923095703,1.117840051651001,0.5498546361923218,-0.2569449841976166,0.2575558722019195
2023-11-30 19:49:37.633821700,2.28982177734375,1.252906322479248,0.7579479217529297,1.6136300563812256,0.5220603346824646,-0.1677587330341339,0.2092975378036499
2023-11-30 19:49:37.652423700,2.308423583984375,0.6371736526489258,1.496288776397705,2.255157470703125,0.488462746143341,-0.284433901309967,0.0691040754318237
2023-11-30 19:49:37.671025400,2.327025390625,0.4901089668273926,1.6169819831848145,2.7539706230163574,0.3946950137615204,-0.4203513264656067,-0.1135444939136505
2023-11-30 19:49:37.689627400,2.34562744140625,0.2354140281677246,1.7963285446166992,3.2959651947021484,0.1750891208648681,-0.3052033185958862,-0.1831830739974975
2023-11-30 19:49:37.708229400,2.3642294921875,-0.3837890625,2.0660696029663086,3.078643321990967,-0.0848338454961776,-0.0174860041588544,-0.1379790753126144
2023-11-30 19:49:37.726831400,2.382831298828125,-0.6417431831359863,2.0120067596435547,2.505577087402344,-0.3071886301040649,0.0283288545906543,-0.1242346242070198
2023-11-30 19:49:37.745433000,2.40143310546875,-0.2362911701202392,1.6944246292114258,2.0414013862609863,-0.4650971591472626,-0.0101556265726685,-0.1385899484157562
2023-11-30 19:49:37.764035000,2.42003515625,0.149836778640747,1.4528498649597168,1.5608668327331543,-0.4672352075576782,-0.0171805713325738,-0.1181259751319885
2023-11-30 19:49:37.782637000,2.438636962890625,0.5657823085784912,1.2457880973815918,0.967343807220459,-0.3725511431694031,0.0579557977616786,0.0122936535626649
2023-11-30 19:49:37.801239000,2.457239013671875,0.836787223815918,1.2314119338989258,-0.006919115781784,-0.1911243200302124,-0.004657844081521,0.1527925580739975
2023-11-30 19:49:37.819840800,2.4758408203125,0.9683032035827636,1.0520944595336914,-0.7404146790504456,0.0428368933498859,-0.224569171667099,0.2486983239650726
2023-11-30 19:49:37.838442800,2.49444287109375,1.1448695659637451,0.7045564651489258,-1.0088469982147217,0.2929860055446625,-0.4429533183574676,0.3268890082836151
2023-11-30 19:49:37.857044700,2.513044677734375,1.0641436576843262,0.4127531051635742,-1.3455052375793457,0.5226711630821228,-0.6029998660087585,0.3534616231918335
2023-11-30 19:49:37.875646700,2.531646728515625,0.7029085159301758,0.3751974105834961,-1.448929786682129,0.6982948184013367,-0.709595799446106,0.2474765926599502
2023-11-30 19:49:37.894248700,2.550248779296875,0.053816795349121,0.5513296127319336,-1.0219987630844116,0.8329904675483704,-0.553214430809021,0.0947603955864906
2023-11-30 19:49:37.912850400,2.568850341796875,-0.589714765548706,0.6067819595336914,-0.3472026586532593,0.8965204358100891,-0.0825431048870086,-0.004810560029
2023-11-30 19:49:37.931452400,2.587452392578125,-1.1733601093292236,0.3118162155151367,-0.1653152704238891,0.5953640937805176,0.0634535774588584,-0.0649807378649711
2023-11-30 19:49:37.950054400,2.606054443359375,-1.7878475189208984,-0.1584310531616211,-0.1012449264526367,-0.1614973694086074,-0.1924987584352493,-0.0353537984192371
2023-11-30 19:49:37.968656400,2.624656494140625,-4.807826995849609,-0.8156213760375977,0.2208513617515564,-0.5973494052886963,-0.0055741411633789,0.0529161617159843
2023-11-30 19:49:37.987258000,2.643258056640625,-4.277324199676514,-1.2959508895874023,0.2291401028633117,-0.7088322043418884,0.1639408320188522,0.1292742639780044
2023-11-30 19:49:38.005860000,2.661860107421875,-2.7597784996032715,-1.320779800415039,0.4706145524978637,-0.5802451968193054,0.2067013680934906,0.1500436663627624
2023-11-30 19:49:38.024462000,2.680462158203125,-1.5571434497833252,-1.0115442276000977,0.8443944454193115,-0.307494044303894,0.1471420526504516,0.1115591824054718
2023-11-30 19:49:38.043064000,2.69906396484375,-0.6324453353881836,-0.7476053237915039,1.1259148120880127,-0.0185550171881914,0.0359646640717983,0.0516944304108619
2023-11-30 19:49:38.061665800,2.717665771484375,0.0286815166473388,-0.7853803634643555,1.3657007217407229,0.1359937787055969,-0.054443322122097,0.0190131664276123
2023-11-30 19:49:38.080267800,2.736267822265625,0.0385448932647705,-0.6693706512451172,1.3162109851837158,0.1109483167529106,-0.1143080741167068,0.0651334598660469
2023-11-30 19:49:38.098869800,2.754869873046875,-0.533869743347168,-0.2541036605834961,1.228608250617981,-0.0432950407266616,-0.0040469793602824,0.2502254843711853
2023-11-30 19:49:38.117471700,2.7734716796875,-1.108757495880127,-0.0735225677490234,0.7046310305595398,-0.2879463732242584,0.1813504844903946,0.4738020002841949
2023-11-30 19:49:38.136073500,2.792073486328125,-1.1680941581726074,-0.5499553680419922,0.0597258210182189,-0.4938078224658966,0.2861137986183166,0.6039161682128906
2023-11-30 19:49:38.154675500,2.810675537109375,-0.7127244472503662,-0.9238910675048828,-0.2444534301757812,-0.5594757795333862,0.2515999376773834,0.5907825827598572
2023-11-30 19:49:38.173277400,2.82927734375,0.294074535369873,-1.1189231872558594,-0.3705667853355407,-0.4318050444126129,0.0866664424538612,0.391640692949295
2023-11-30 19:49:38.191879400,2.84787939453125,1.16880464553833,-0.1688213348388672,-0.373306393623352,-0.1098792999982833,-0.2673296928405761,0.0562759190797805
2023-11-30 19:49:38.210481400,2.8664814453125,2.1536879539489746,0.3523387908935547,-0.1464815139770507,0.331165075302124,-0.3943895697593689,-0.1889862865209579
2023-11-30 19:49:38.229083400,2.88508349609375,3.2237863540649414,-0.2677936553955078,-0.4807626008987427,0.7294489145278931,-0.040698867291212,-0.3016908466815948
2023-11-30 19:49:38.247685000,2.90368505859375,3.770179748535156,-1.2401008605957031,-1.3567755222320557,0.8827759623527527,0.4033998250961303,-0.4626537263393402
2023-11-30 19:49:38.266287000,2.922287109375,3.486020088195801,-1.5475454330444336,-1.4257475137710571,0.7590758204460144,0.4953349828720093,-0.69722580909729
2023-11-30 19:49:38.284889000,2.94088916015625,2.3647830486297607,-1.0610675811767578,-0.7054728865623474,0.5153408050537109,0.5072468519210815,-0.8224530816078186
2023-11-30 19:49:38.303490800,2.95949072265625,1.344996452331543,-0.3905906677246094,-0.4293693304061889,0.3250564336776733,0.630946934223175,-0.7631992101669312
2023-11-30 19:49:38.322092800,2.9780927734375,0.6437530517578125,0.1938085556030273,-0.6621105670928955,0.2926805913448334,0.6578249931335449,-0.6459131240844727
2023-11-30 19:49:38.340694800,2.99669482421875,0.3033640384674072,0.8982887268066406,-0.6748011708259583,0.409661203622818,0.5228238701820374,-0.5017490386962891
2023-11-30 19:49:38.359296800,3.015296875,0.2077043056488037,1.3125638961791992,-0.4276900887489319,0.5486329197883606,0.3728565871715545,-0.3417024910449981
2023-11-30 19:49:38.377898500,3.0338984375,-0.216099739074707,1.5253162384033203,-0.3956145048141479,0.5632936954498291,0.1831830739974975,-0.1813504844903946
2023-11-30 19:49:38.396500500,3.05250048828125,-0.8338451385498047,1.6962671279907229,-0.3381569385528564,0.2688568532466888,-0.0327576249837875,-0.032604906708002
2023-11-30 19:49:38.415102500,3.0711025390625,-1.948574542999268,1.546471118927002,-0.3852340579032898,-0.1123227626085281,0.1046869531273841,0.104534238576889
2023-11-30 19:49:38.433704400,3.089704345703125,-2.7557623386383057,0.912827491760254,-0.5079786777496338,-0.325514554977417,0.3878227770328522,0.1909715980291366
2023-11-30 19:49:38.452306200,3.10830615234375,-2.164303779602051,0.4173059463500976,-0.7039695978164673,-0.3313177824020386,0.4815905094146728,0.1879172772169113
2023-11-30 19:49:38.470908200,3.126908203125,-1.161510944366455,0.1480722427368164,-0.8777368068695068,-0.208839401602745,0.4027889668941498,0.1210275813937187
2023-11-30 19:49:38.489510100,3.14551025390625,-0.317178726196289,0.0691728591918945,-0.9585090279579164,-0.1049923822283744,0.274812787771225,0.0324521921575069
2023-11-30 19:49:38.508112100,3.164112060546875,-0.1130552291870117,0.0616483688354492,-1.0039656162261963,-0.1550832986831665,0.1663842946290969,-0.0469602309167385
2023-11-30 19:49:38.526714000,3.182714111328125,-0.5645215511322021,0.1261005401611328,-1.0397735834121704,-0.3881282210350036,0.124845489859581,-0.106824979186058
2023-11-30 19:49:38.545315800,3.20131591796875,-1.3196642398834229,0.1723709106445312,-0.9248340725898744,-0.6822596192359924,0.1566104590892791,-0.0967457070946693
2023-11-30 19:49:38.563917800,3.219917724609375,-1.754716396331787,0.1838922500610351,-0.9234409332275392,-0.8917862176895142,0.1392008066177368,-0.0130572346970438
2023-11-30 19:49:38.582520300,3.238520263671875,-1.43475604057312,0.1874647140502929,-1.1046772003173828,-0.9687551856040956,-0.0492509715259075,0.1115591824054718
2023-11-30 19:49:38.601122300,3.257122314453125,-0.762047290802002,0.4044771194458008,-1.3001312017440796,-0.91041761636734,-0.3253618478775024,0.2077703773975372
2023-11-30 19:49:38.619724000,3.27572412109375,0.0399482250213623,0.6038045883178711,-1.1566160917282104,-0.7683915495872498,-0.4432587623596191,0.2829067409038543
2023-11-30 19:49:38.638326000,3.294325927734375,0.7993781566619873,0.5649309158325195,-0.9282598495483398,-0.6639336347579956,-0.3989710509777069,0.3097847998142242
2023-11-30 19:49:38.656928000,3.312927978515625,1.420742750167847,0.0307350158691406,-0.833960235118866,-0.6682097315788269,-0.4316523373126983,0.2920697331428528
2023-11-30 19:49:38.675530000,3.331530029296875,2.202382326126098,-1.4999170303344729,-0.6231529712677002,-0.5946004986763,-0.4350120723247528,0.2826013267040252
2023-11-30 19:49:38.694131700,3.350131591796875,3.117666721343994,-3.1272640228271484,-0.7088322043418884,-0.2082285284996032,-0.553214430809021,0.257250428199768
2023-11-30 19:49:38.712733700,3.368733642578125,4.005276679992676,-2.888967514038086,-0.1470386981964111,0.3482692837715149,-0.8806379437446594,0.2673296928405761
2023-11-30 19:49:38.731335700,3.387335693359375,3.93799901008606,-1.287322998046875,0.338186502456665,1.015333652496338,-1.4609594345092771,0.0767398849129676
2023-11-30 19:49:38.749937400,3.4059375,4.03272008895874,-0.7846384048461914,1.265302062034607,1.331150770187378,-1.2981640100479126,-0.1712712198495865
2023-11-30 19:49:38.768539400,3.424539306640625,3.626715421676636,-0.9177646636962892,2.5967061519622803,1.002810835838318,-0.235564723610878,-0.4602102637290954
2023-11-30 19:49:38.787141400,3.443141357421875,0.5314950942993164,-1.0036382675170898,3.341454029083252,0.4191296100616455,0.8233693838119507,-0.7641154527664185
2023-11-30 19:49:38.805743400,3.461743408203125,-1.5323503017425537,-0.7251968383789062,4.561125755310059,0.0654388889670372,1.2048543691635132,-0.8252019882202148
2023-11-30 19:49:38.824345300,3.480345458984375,-1.265993356704712,0.5631704330444336,4.163658142089844,-0.0561232008039951,0.925994634628296,-0.5432878732681274
2023-11-30 19:49:38.842947300,3.498947265625,-0.163794994354248,1.7621917724609375,2.2821133136749268,-0.0570394992828369,0.1981492638587951,0.0071013029664754
2023-11-30 19:49:38.861549000,3.517549072265625,0.6740171909332275,2.097764492034912,0.6240112781524658,0.0300087314099073,-0.5868119597434998,0.6026944518089294
2023-11-30 19:49:38.880151000,3.536151123046875,0.9867863655090332,1.8290796279907229,-0.4745315313339233,0.1372154951095581,-1.1463640928268433,1.035492181777954
2023-11-30 19:49:38.898753000,3.5547529296875,0.91131591796875,1.569845199584961,-0.5473406910896301,0.1601229310035705,-1.3137410879135132,1.228219985961914
2023-11-30 19:49:38.917355000,3.57335498046875,0.2521438598632812,1.6671380996704102,-0.181323766708374,0.1085048541426658,-1.124678373336792,1.2022582292556765
2023-11-30 19:49:38.935956700,3.591956787109375,-0.410517930984497,1.7595243453979492,0.3412619233131408,-0.0051159923896193,-0.7496074438095093,1.0651191473007202
2023-11-30 19:49:38.954558700,3.610558837890625,-0.7628035545349121,1.635148048400879,0.4893827438354492,-0.1636354029178619,-0.4453967809677124,0.8632283210754395
2023-11-30 19:49:38.973160700,3.62916064453125,-0.8935301303863525,1.2679510116577148,0.4137954711914062,-0.3245982825756073,-0.3391063213348388,0.655228853225708
2023-11-30 19:49:38.991762400,3.647762451171875,-0.9233667850494384,0.6853466033935547,0.2463948726654052,-0.3533089160919189,-0.3476584255695343,0.5196168422698975
2023-11-30 19:49:39.010364400,3.666364501953125,-0.8258779048919678,0.0284557342529296,-0.1594455242156982,-0.234190285205841,-0.514729917049408,0.4344012141227722
2023-11-30 19:49:39.028966400,3.68496630859375,-0.576068639755249,-0.4647731781005859,-0.1612131595611572,-0.2555705606937408,-0.5437459945678711,0.4117992222309112
2023-11-30 19:49:39.047568400,3.703568359375,-1.2179527282714844,-0.7147026062011719,-0.0922653675079345,-0.4278344213962555,-0.4011090993881225,0.354683369398117
2023-11-30 19:49:39.066170000,3.722170166015625,-2.59487247467041,-0.8774938583374023,0.4894384741783142,-0.5930733680725098,-0.1763108521699905,0.3045924603939056
2023-11-30 19:49:39.084772000,3.740772216796875,-3.082876205444336,-1.030074119567871,0.9341996908187866,-0.6193405389785767,0.0090866135433316,0.3058141767978668
2023-11-30 19:49:39.103374000,3.7593740234375,-2.6236250400543213,-0.8466196060180664,0.9457131624221802,-0.5362629294395447,0.0988837331533432,0.3412443399429321
2023-11-30 19:49:39.121976000,3.77797607421875,-1.877434015274048,-0.2874250411987304,0.6717700362205505,-0.390571653842926,0.2012035846710205,0.3766745030879974
2023-11-30 19:49:39.140578000,3.796578125,-1.3244707584381104,0.0503816604614257,0.3964574337005615,-0.2439641207456588,0.3688859641551971,0.4017199575901031
2023-11-30 19:49:39.159179800,3.8151796875,-0.8318891525268555,-0.0250062942504882,0.102803349494934,-0.1660788655281067,0.4678460657596588,0.4114937782287597
2023-11-30 19:49:39.177781800,3.83378173828125,-0.5900211334228516,-0.1486396789550781,-0.1798765659332275,-0.1697440445423126,0.373162031173706,0.3800342381000519
2023-11-30 19:49:39.196383700,3.8523837890625,-0.648411750793457,-0.0325956344604492,-0.283169150352478,-0.1837939471006393,0.1828776448965072,0.3018435537815094
2023-11-30 19:49:39.214985700,3.87098583984375,-0.6082842350006104,-0.1770277023315429,-0.1177884340286254,-0.1657734364271164,0.188069999217987,0.249920055270195
2023-11-30 19:49:39.233587500,3.88958740234375,-0.4946358203887939,-0.8020219802856445,0.1858327388763427,-0.1202640011906623,0.4018726646900177,0.2450331300497055
2023-11-30 19:49:39.252189400,3.908189453125,-0.111821174621582,-1.656829833984375,0.4467866420745849,-0.083306685090065,0.5707767605781555,0.2975675165653229
2023-11-30 19:49:39.270791400,3.92679150390625,0.3359827995300293,-2.278741836547852,0.5321331024169922,-0.007559451740235,0.5536725521087646,0.349185585975647
2023-11-30 19:49:39.289393400,3.945393310546875,1.1669952869415283,-2.4762983322143555,0.3647124767303467,0.0935386717319488,0.3621664643287658,0.3372737169265747
2023-11-30 19:49:39.307995100,3.9639951171875,2.1611547470092773,-3.040376663208008,0.4024176597595215,0.1970802545547485,0.1031597927212715,0.1659261435270309
2023-11-30 19:49:39.326597000,3.98259716796875,3.292200088500977,-3.5964269638061523,0.1835029125213623,0.1595120728015899,-0.1961639523506164,-0.1786015927791595
2023-11-30 19:49:39.345199000,4.00119921875,3.4275057315826416,-2.7184085845947266,0.7445708513259888,0.0342847853899002,-0.2205985486507415,-0.4492146968841553
2023-11-30 19:49:39.363801000,4.019801025390625,2.8569843769073486,-1.5878067016601562,0.7623565196990967,-0.042989607900381,-0.0413097292184829,-0.5698604583740234
2023-11-30 19:49:39.382403000,4.038403076171875,2.5085737705230717,-0.6024923324584961,0.3718409538269043,-0.0472656637430191,0.0631481483578682,-0.6294198036193848
2023-11-30 19:49:39.401004800,4.0570048828125,2.5170323848724365,-0.0246763229370117,0.3423848152160644,0.0122936535626649,0.0881936028599739,-0.6425533890724182
2023-11-30 19:49:39.419606800,4.075606689453125,2.4975686073303223,0.3894519805908203,0.4192656278610229,0.0877354517579078,0.1132390573620796,-0.6297252178192139
2023-11-30 19:49:39.438208800,4.094208740234375,2.2408483028411865,0.8944215774536133,0.362947940826416,0.1405752599239349,0.1260672211647033,-0.6196459531784058
2023-11-30 19:49:39.456810800,4.112810791015625,1.4709229469299316,1.5580854415893557,0.441266655921936,0.194025918841362,0.1471420526504516,-0.5741365551948547
2023-11-30 19:49:39.475412500,4.13141259765625,0.6177463531494141,2.238833427429199,0.416407823562622,0.2538906633853912,0.2146426141262054,-0.5081631541252136
2023-11-30 19:49:39.494014500,4.150014404296875,-0.1197211742401123,2.856608390808105,0.2694212198257446,0.3497964441776275,0.3413970470428467,-0.4553233385086059
2023-11-30 19:49:39.512616400,4.168616455078125,-0.6599063873291016,3.110649585723877,0.2580400705337524,0.4847975671291351,0.4815905094146728,-0.3975966274738312
2023-11-30 19:49:39.531218400,4.187218505859375,-0.7204415798187256,2.83621883392334,0.0940243005752563,0.3791179656982422,0.3157407343387604,-0.4293615818023681
2023-11-30 19:49:39.549820200,4.205820068359375,-0.782240629196167,2.090316772460937,0.0253005027770996,0.0333684869110584,0.1999818533658981,-0.3395644724369049
2023-11-30 19:49:39.568422100,4.224422119140625,-2.2459917068481445,1.0798044204711914,0.2064518928527832,-0.3068831861019134,0.2167806327342987,-0.0158061254769563
2023-11-30 19:49:39.587024100,4.243024169921875,-2.535770893096924,0.5538673400878906,-1.2400671243667605,-0.5442041754722595,-0.1191949918866157,0.2199876755475998
2023-11-30 19:49:39.605625900,4.2616259765625,-2.172765016555786,0.3468561172485351,-1.848461627960205,-0.6394990682601929,-0.5965858101844788,0.2994000911712646
2023-11-30 19:49:39.624227800,4.280227783203125,-1.4033300876617432,0.0447111129760742,-1.526726484298706,-0.6358338594436646,-0.79358971118927,0.3103956580162048
2023-11-30 19:49:39.642829800,4.298829833984375,-0.8896992206573486,-0.2179403305053711,-1.518518090248108,-0.6162862181663513,-0.6995165348052979,0.2545015513896942
2023-11-30 19:49:39.661431800,4.317431884765625,-0.7234337329864502,-0.3844928741455078,-1.4493916034698486,-0.6617956161499023,-0.5153408050537109,0.1387426704168319
2023-11-30 19:49:39.680033800,4.33603369140625,-0.9430557489395142,-0.267313003540039,-1.1761107444763184,-0.7723621726036072,-0.3305542171001434,0.0443640537559986
2023-11-30 19:49:39.698635800,4.3546357421875,-1.3921208381652832,0.1380081176757812,-0.7808557748794556,-0.8688787817955017,-0.0526107288897037,0.0260381121188402
2023-11-30 19:49:39.717237500,4.373237548828125,-1.6239720582962036,0.5361747741699219,-0.7599490880966187,-0.8792635202407837,0.2977202236652374,0.0361173786222934
2023-11-30 19:49:39.735839500,4.391839599609375,-1.413053274154663,0.7110042572021484,-0.7019742727279663,-0.7567850947380066,0.5509236454963684,0.0092393299564719
2023-11-30 19:49:39.754441500,4.41044140625,-0.8147995471954346,0.6881809234619141,-0.495526909828186,-0.5332086086273193,0.4721221029758453,-0.0613155514001846
2023-11-30 19:49:39.773043500,4.42904345703125,-0.007474660873413,0.5841102600097656,-0.2208491563796997,-0.3386481702327728,0.151112675666809,-0.0836121141910553
2023-11-30 19:49:39.791645200,4.447645263671875,0.4409105777740478,0.5367164611816406,-0.2595528364181518,-0.3132972717285156,-0.0746018588542938,-0.0182495843619108
2023-11-30 19:49:39.810247200,4.4662470703125,0.0070260763168334,0.4640083312988281,-0.6955422163009644,-0.4290561378002167,-0.1561523079872131,0.0523052960634231
2023-11-30 19:49:39.828849200,4.48484912109375,-0.751602053642273,0.1383342742919922,-0.9501242637634276,-0.5619192123413086,-0.1185841262340545,0.0709366723895073
2023-11-30 19:49:39.847451100,4.503451171875,-0.8850747346878052,-0.8673887252807617,-0.8578143119812012,-0.4776198863983154,0.0148898288607597,0.0590248107910156
2023-11-30 19:49:39.866052900,4.522052978515625,0.0511181354522705,-2.215395927429199,-0.8116863965988159,-0.0286342874169349,-0.0358119495213031,-0.0387135557830333
2023-11-30 19:49:39.884654800,4.54065478515625,2.0902795791625977,-3.6047887802124015,-0.5550833940505981,0.5519927144050598,-0.3867537677288055,-0.148363783955574
2023-11-30 19:49:39.903256800,4.5592568359375,3.567379951477051,-3.734490394592285,-0.1801837682723999,0.9905936121940612,-0.4847975671291351,-0.2082285284996032
2023-11-30 19:49:39.921858800,4.57785888671875,3.3231892585754395,-2.081827163696289,-0.1960304975509643,1.1860703229904177,-0.1708130687475204,-0.3441459536552429
2023-11-30 19:49:39.940460500,4.59646044921875,2.154721736907959,-0.4200382232666015,0.5329813361167908,1.177212834358215,0.3475056886672973,-0.5729147791862488
2023-11-30 19:49:39.959062500,4.6150625,1.0795326232910156,0.3849296569824219,1.755742073059082,1.063286542892456,0.9027817845344543,-0.7815251350402832
2023-11-30 19:49:39.977664500,4.63366455078125,0.5654270648956299,0.7454490661621094,2.467042922973633,0.8952987194061279,1.3215296268463137,-0.9498183727264404
2023-11-30 19:49:39.996266500,4.6522666015625,0.479442834854126,0.7660093307495117,3.022596597671509,0.6778308153152466,1.5108976364135742,-1.0255656242370603
2023-11-30 19:49:40.014868500,4.670868408203125,0.4403333663940429,0.5959720611572266,3.416220426559448,0.4340957701206207,1.3865866661071775,-0.9281326532363892
2023-11-30 19:49:40.033470200,4.68947021484375,0.4961974620819092,0.4425010681152344,3.1562933921813965,0.2019671648740768,0.8844558596611023,-0.5891027450561523
2023-11-30 19:49:40.052072200,4.708072265625,0.5929911136627197,0.6277933120727539,2.4699535369873047,0.0437531881034374,0.1587484776973724,-0.0090866135433316
2023-11-30 19:49:40.070674200,4.726674072265625,0.7413954734802246,1.1731328964233398,1.2288553714752195,-0.0368809625506401,-0.6497310400009155,0.6292670965194702
2023-11-30 19:49:40.089276200,4.745276123046875,0.7414064407348633,1.8878698348999023,0.2504342794418335,0.0031306820455938,-1.4185043573379517,1.1213186979293823
2023-11-30 19:49:40.107878000,4.7638779296875,0.901642084121704,2.2637901306152344,0.2270570993423462,0.0681877806782722,-1.7459279298782349,1.4634029865264893
2023-11-30 19:49:40.126480000,4.78247998046875,0.6471738815307617,2.418858528137207,0.1446505784988403,0.0791833475232124,-1.735237717628479,1.591379165649414
2023-11-30 19:49:40.145081900,4.801081787109375,0.1581366062164306,2.39334774017334,0.4573882818222046,-0.0179441533982753,-1.6741513013839722,1.5348740816116333
2023-11-30 19:49:40.163683800,4.819683837890625,-0.3046505451202392,2.1023707389831543,0.91498064994812,-0.2546542584896087,-1.5623630285263062,1.422474980354309
2023-11-30 19:49:40.182285600,4.83828564453125,-0.8712124824523926,1.5921154022216797,0.8839742541313171,-0.5347357392311096,-1.4542399644851685,1.274034857749939
2023-11-30 19:49:40.200887600,4.856887451171875,-1.3690085411071775,0.9536285400390624,0.5772588849067688,-0.7751110196113586,-1.372994899749756,1.098411202430725
2023-11-30 19:49:40.219489500,4.875489501953125,-1.619899868965149,0.4216575622558594,0.5055627822875977,-0.9165262579917908,-1.3332887887954712,0.9569960236549376
2023-11-30 19:49:40.238091500,4.894091552734375,-1.8247870206832888,0.1122379302978515,0.3282800912857055,-0.96570086479187,-1.3348158597946167,0.8522327542304993
2023-11-30 19:49:40.256693200,4.912693359375,-1.873459219932556,-0.0458040237426757,0.2552855014801025,-0.9870811104774476,-1.2398264408111572,0.8158862590789795
2023-11-30 19:49:40.275295200,4.931295166015625,-2.068992853164673,-0.1430521011352539,0.0834881067276001,-0.9742529392242432,-0.9707404971122742,0.7905353903770447
2023-11-30 19:49:40.293897200,4.949897216796875,-2.19761323928833,-0.2631244659423828,-0.0081124305725097,-0.9327141642570496,-0.5669588446617126,0.6912698745727539
2023-11-30 19:49:40.312499200,4.968499267578125,-2.12833023071289,-0.438385009765625,0.2506226301193237,-0.8282563090324402,-0.2059377878904342,0.5174788236618042
2023-11-30 19:49:40.331101200,4.98710107421875,-1.9460068941116333,-0.613774299621582,0.8172866106033325,-0.667904257774353,-0.0217620581388473,0.4197404682636261
2023-11-30 19:49:40.349703200,5.005703125,-1.520774006843567,-0.7121076583862305,0.7259931564331055,-0.4757873117923736,-0.0736855641007423,0.4078285992145538
2023-11-30 19:49:40.368305000,5.024304931640625,-1.1607046127319336,-0.7405481338500977,0.2347171306610107,-0.2488510459661483,-0.2548069655895233,0.4014145135879516
2023-11-30 19:49:40.386907000,5.042906982421875,-1.024345636367798,-0.9525365829467772,-0.1638400554656982,0.025427246466279,-0.4896844923496246,0.3641517758369446
2023-11-30 19:49:40.405508900,5.0615087890625,-0.6769856214523315,-1.709559440612793,-0.3721659183502197,0.2789361178874969,-0.5397753715515137,0.3589594066143036
2023-11-30 19:49:40.424110600,5.080110595703125,-0.2235817909240722,-3.017435073852539,-0.7720658779144287,0.6662244200706482,-0.2053269296884536,0.4408152997493744
2023-11-30 19:49:40.442712600,5.098712646484375,0.507138729095459,-4.158757209777832,-1.8029580116271973,1.1839323043823242,0.0891098976135253,0.2548069655895233
2023-11-30 19:49:40.461314600,5.117314453125,2.020414352416992,-4.982309341430664,-1.7517743110656738,1.6460515260696411,0.1593593508005142,-0.3050506114959717
2023-11-30 19:49:40.479916500,5.13591650390625,3.123641014099121,-5.659225463867188,-0.4106616973876953,1.7651700973510742,0.3991237878799438,-0.9501237869262696
2023-11-30 19:49:40.498518300,5.154518310546875,3.083449602127075,-4.786748886108398,0.6099996566772461,1.5168535709381104,0.787939190864563,-1.4088832139968872
2023-11-30 19:49:40.517120300,5.173120361328125,1.9046070575714111,-2.741941452026367,0.6769959926605225,1.0498474836349487,1.149571180343628,-1.6177990436553955
2023-11-30 19:49:40.535722200,5.19172216796875,0.8742456436157227,-1.1227025985717771,0.300819993019104,0.5043452382087708,1.4223222732543943,-1.574122190475464
2023-11-30 19:49:40.554324200,5.21032421875,0.2939453125,0.0003681182861328,-0.2043604850769043,0.06146826967597,1.520060658454895,-1.391473650932312
2023-11-30 19:49:40.572926000,5.228926025390625,0.1898696422576904,1.1173315048217771,-0.7265534400939941,-0.1700494885444641,1.3193916082382202,-1.1538472175598145
2023-11-30 19:49:40.591528000,5.24752783203125,0.6239094734191895,2.239978790283203,-0.7483468055725098,-0.2082285284996032,0.8850666880607605,-0.8300888538360596
2023-11-30 19:49:40.610130000,5.2661298828125,1.1605267524719238,3.0750269889831543,-1.012296438217163,-0.1117118969559669,0.3862956166267395,-0.5048033595085144
2023-11-30 19:49:40.628732000,5.28473193359375,1.5568721294403076,3.57084321975708,-1.235385537147522,0.0043524117209017,0.0182495843619108,-0.2399934977293014
2023-11-30 19:49:40.647334000,5.303333984375,1.4821782112121582,3.926386833190918,-0.9267338514328004,0.0773507505655288,-0.1570686101913452,-0.0567340664565563
2023-11-30 19:49:40.665936000,5.321935791015625,0.7320098876953125,4.139396667480469,-0.6986907720565796,0.1359937787055969,-0.2288452237844467,0.0287870019674301
2023-11-30 19:49:40.684537600,5.34053759765625,0.4011216163635254,3.8697047233581534,-0.3187448978424072,0.1485165059566497,-0.1659261435270309,0.0229837875813245
2023-11-30 19:49:40.703139600,5.3591396484375,0.2997453212738037,3.122411727905273,-0.0535316467285156,0.1601229310035705,-0.0443640537559986,-0.0567340664565563
2023-11-30 19:49:40.721741600,5.377741455078125,0.3429498672485351,2.441314697265625,0.2633957862854004,0.224569171667099,0.145614892244339,-0.0863610059022903
2023-11-30 19:49:40.740343300,5.39634326171875,0.3634872436523437,2.0371856689453125,0.1849472522735595,0.3665952384471893,0.2916115820407867,-0.096440277993679
2023-11-30 19:49:40.758945300,5.4149453125,0.5058584213256836,1.6445674896240234,-0.0986641645431518,0.4829649627208709,0.2537379562854767,-0.1196531355381012
2023-11-30 19:49:40.777547300,5.43354736328125,0.7075300216674805,0.8586740493774414,-0.3737478256225586,0.3610974550247192,-0.0559704862534999,0.000992655288428
2023-11-30 19:49:40.796149200,5.452149169921875,-0.1124742031097412,-0.2454986572265625,-0.8231819868087769,0.075212724506855,-0.4438696205615997,0.3091739416122436
2023-11-30 19:49:40.814751000,5.4707509765625,-1.208784818649292,-0.9371328353881836,-2.1677212715148926,-0.3142135739326477,-0.942335307598114,0.5367210507392883
2023-11-30 19:49:40.833353000,5.48935302734375,-2.155725479125977,-1.2205924987792969,-2.458815813064575,-0.722882091999054,-1.384601354598999,0.5907825827598572
2023-11-30 19:49:40.851955000,5.507954833984375,-3.061657428741455,-1.1690731048583984,-1.6908308267593384,-1.018540620803833,-1.4047598838806152,0.5632936954498291
2023-11-30 19:49:40.870557000,5.526556884765625,-3.3671889305114746,-1.0148305892944336,-1.17805278301239,-1.1443787813186646,-0.9194278717041016,0.4976257085800171
2023-11-30 19:49:40.889158700,5.54515869140625,-3.106086492538452,-0.9617805480957032,-1.0376286506652832,-1.0719913244247437,-0.2377027571201324,0.3806451261043548
2023-11-30 19:49:40.907760600,5.5637607421875,-2.402483940124512,-0.8642520904541016,-1.0344817638397217,-0.824896514415741,0.2149480432271957,0.1973856836557388
2023-11-30 19:49:40.926362600,5.582362548828125,-1.3241981267929075,-0.5856895446777344,-0.9088045358657836,-0.5228238701820374,0.1902080178260803,-0.0194713156670331
2023-11-30 19:49:40.944964600,5.600964599609375,-0.420983076095581,-0.4703989028930664,-0.8276084661483765,-0.284586638212204,-0.0990364551544189,-0.1492800861597061
2023-11-30 19:49:40.963566600,5.619566650390625,0.069767951965332,-0.5995244979858398,-1.1228649616241455,-0.1758527010679245,-0.1799760311841964,-0.164551705121994
2023-11-30 19:49:40.982168600,5.63816845703125,-0.0218055248260498,-0.8183832168579102,-1.440356731414795,-0.1480583548545837,-0.0749072954058647,-0.2308305352926254
2023-11-30 19:49:41.000770300,5.656770263671875,0.1384782791137695,-1.6680641174316406,-1.319960594177246,-0.0405461490154266,0.0274125561118125,-0.4061487317085266
2023-11-30 19:49:41.019372300,5.675372314453125,1.1406636238098145,-3.1092491149902344,-0.7019375562667847,0.2465602904558181,-0.0681877806782722,-0.5335140228271484
2023-11-30 19:49:41.037974300,5.693974365234375,2.9182753562927246,-3.776129722595215,-0.33334481716156,0.5687914490699768,-0.2847393453121185,-0.5649735331535339
2023-11-30 19:49:41.056576000,5.712575927734375,3.924165725708008,-3.0788869857788086,-0.404065728187561,0.8042798638343811,-0.3174206018447876,-0.5866592526435852
2023-11-30 19:49:41.075178000,5.731177978515625,3.443554639816284,-1.4761114120483398,0.1374775171279907,0.9450841546058656,-0.2209039777517318,-0.6428588032722473
2023-11-30 19:49:41.093780000,5.749780029296875,2.708277463912964,-0.1617698669433593,0.9431074261665344,1.0196096897125244,-0.057192213833332,-0.7057778835296631
2023-11-30 19:49:41.112382000,5.7683818359375,2.19043231010437,0.5239419937133789,1.612440824508667,1.0302997827529907,0.1370627880096435,-0.8047379851341248
2023-11-30 19:49:41.130983700,5.786983642578125,1.962791919708252,0.8578462600708008,2.156210422515869,0.8833868503570557,0.4226420819759369,-0.9272163510322572
2023-11-30 19:49:41.149585700,5.805585693359375,1.1852734088897705,0.9165668487548828,2.9296796321868896,0.6698895692825317,0.639804482460022,-1.0322850942611694
2023-11-30 19:49:41.168187600,5.824187744140625,0.5690915584564209,1.0133419036865234,3.47298526763916,0.3589594066143036,0.685924768447876,-0.9996038675308228
2023-11-30 19:49:41.186789600,5.84278955078125,-0.1131365299224853,1.4374074935913086,3.214242696762085,0.0339793525636196,0.3759109079837799,-0.5332086086273193
2023-11-30 19:49:41.205391600,5.8613916015625,-0.8892970085144043,2.1284008026123047,2.2121896743774414,-0.1333975940942764,-0.0904843434691429,0.3879754841327667
2023-11-30 19:49:41.223993300,5.879993408203125,-1.051781415939331,2.693140983581543,-0.9750880599021912,-0.0982728749513626,-0.9844849705696106,1.210810303688049
2023-11-30 19:49:41.242595300,5.89859521484375,-0.2933557033538818,2.461258888244629,-2.0422472953796387,-0.0640644431114196,-1.6500221490859983,1.6643774509429932
2023-11-30 19:49:41.261197300,5.917197265625,-0.3179318904876709,2.197702407836914,-1.393800973892212,-0.1795178800821304,-1.6121485233306885,1.736459493637085
2023-11-30 19:49:41.279799300,5.93579931640625,-1.2748394012451172,1.89087438583374,-0.6169138550758362,-0.4779253304004669,-0.9857066869735718,1.504636287689209
2023-11-30 19:49:41.298401300,5.9544013671875,-2.194732666015625,1.6303033828735352,0.4234951734542846,-0.8636864423751831,-0.2471711635589599,1.1759910583496094
2023-11-30 19:49:41.317003000,5.9730029296875,-2.740171194076538,1.4099206924438477,0.5244418978691101,-1.1010074615478516,0.0420733131468296,0.81099933385849
2023-11-30 19:49:41.335605000,5.99160498046875,-2.0579304695129395,1.1269207000732422,0.4215176105499267,-1.1278854608535769,0.0515417158603668,0.589560866355896
2023-11-30 19:49:41.354207000,6.01020703125,-1.228543758392334,1.0206422805786133,-0.2473583221435547,-0.9797507524490356,0.0903316289186477,0.4902953505516052
2023-11-30 19:49:41.372808700,6.02880859375,-0.6864361763000488,0.8094015121459961,-0.6920967102050781,-0.798323929309845,0.1508072465658188,0.4951822757720947
2023-11-30 19:49:41.391410700,6.04741064453125,-0.7808046340942383,0.4995965957641601,-1.1419165134429932,-0.7928261160850525,0.2070067971944809,0.4924333691596985
2023-11-30 19:49:41.410012700,6.0660126953125,-1.4979753494262695,0.1560068130493164,-1.2842384576797483,-0.8829286694526672,0.3908770978450775,0.3354411125183105
2023-11-30 19:49:41.428614700,6.08461474609375,-2.708465576171875,-0.4267454147338867,-0.5348896980285645,-0.8221476078033447,0.6471349000930786,0.1647044122219085
2023-11-30 19:49:41.447216400,6.10321630859375,-2.3331472873687744,-1.3729276657104492,0.0782808065414428,-0.6517163515090942,0.7784708142280579,0.1463784724473953
2023-11-30 19:49:41.465818400,6.121818359375,-1.5205950736999512,-1.5786333084106443,-0.1031179428100586,-0.4910589158535003,0.7051670551300049,0.2300669401884079
2023-11-30 19:49:41.484420400,6.14042041015625,-1.2755897045135498,-1.176923751831055,-0.4958312511444092,-0.363388180732727,0.4840339720249176,0.248087465763092
2023-11-30 19:49:41.503022300,6.159022216796875,-1.3295283317565918,-0.8206949234008789,-0.1930346488952636,-0.2537379562854767,0.2989419400691986,0.2034943252801895
2023-11-30 19:49:41.521624300,6.177624267578125,-1.438673973083496,-0.7442741394042969,0.3974255323410034,-0.0790306329727172,0.4012618064880371,0.2077703773975372
2023-11-30 19:49:41.540226300,6.196226318359375,-1.501306414604187,-1.039566993713379,0.2958772182464599,0.2432005405426025,0.5799397230148315,0.2871828079223633
2023-11-30 19:49:41.558828000,6.214828125,-0.6098566055297852,-1.8881864547729488,-0.2908029556274414,0.7218130826950073,0.7735838890075684,0.4933496713638305
2023-11-30 19:49:41.577430000,6.233429931640625,0.8649448156356812,-2.558333396911621,-1.4320547580718994,1.3787981271743774,0.7867174744606018,0.51564621925354
2023-11-30 19:49:41.596032000,6.252031982421875,2.6050801277160645,-3.405095100402832,-2.445698499679565,1.9514838457107544,0.2601520419120788,-0.0567340664565563
2023-11-30 19:49:41.614633700,6.2706337890625,4.222278594970703,-4.132333755493164,-1.459702730178833,2.10145115852356,-0.0016035200096666,-0.9015600681304932
2023-11-30 19:49:41.633235700,6.289235595703125,3.795848846435547,-3.588354110717773,0.6080765724182129,1.846720576286316,0.6349175572395325,-1.378950834274292
2023-11-30 19:49:41.651837700,6.307837646484375,2.2422494888305664,-2.3224096298217773,0.0486238002777099,1.3711624145507812,1.6019165515899658,-1.5249475240707395
2023-11-30 19:49:41.670439700,6.326439697265625,0.9287092685699464,-0.968642234802246,-0.768902063369751,0.8971312642097473,1.996840596199036,-1.5719841718673706
2023-11-30 19:49:41.689041400,6.34504150390625,0.2554166316986084,0.4753456115722656,-0.6405733823776245,0.5990293025970459,1.820606112480164,-1.563126564025879
2023-11-30 19:49:41.707643400,6.363643310546875,0.5830378532409668,1.492412567138672,-0.1641552448272705,0.506483256816864,1.4382047653198242,-1.3978877067565918
2023-11-30 19:49:41.726245400,6.382245361328125,1.2039191722869873,2.000487327575684,-0.2261112928390503,0.5568795800209045,0.9574542045593262,-1.1086431741714478
2023-11-30 19:49:41.744847400,6.400847412109375,1.762981653213501,2.1886606216430664,-0.4450150728225708,0.6155226230621338,0.5151880979537964,-0.7967967391014099
2023-11-30 19:49:41.763449000,6.419448974609375,1.7762303352355957,2.387304306030273,-0.3687726259231567,0.581314206123352,0.2201403975486755,-0.5154935121536255
2023-11-30 19:49:41.782051000,6.438051025390625,1.038299798965454,2.6418356895446777,-0.0636322498321533,0.479299783706665,0.0439059063792228,-0.3120755553245544
2023-11-30 19:49:41.800653000,6.456653076171875,0.2223505973815918,2.6446518898010254,0.3419982194900512,0.3403280377388,-0.0669660493731498,-0.2121991515159607
2023-11-30 19:49:41.819255000,6.475255126953125,-0.2191939353942871,2.496037006378174,0.8053939938545227,0.1592066287994384,-0.075212724506855,-0.1776852905750274
2023-11-30 19:49:41.837857000,6.49385693359375,-0.5697007179260254,2.239419460296631,1.129552960395813,-0.0078648841008543,0.0035888305865228,-0.1630245447158813
2023-11-30 19:49:41.856458800,6.512458740234375,-0.7632005214691162,1.9962778091430664,1.2253369092941284,-0.0820849537849426,0.0646753087639808,-0.1404225379228592
2023-11-30 19:49:41.875060700,6.531060791015625,-0.4840223789215088,1.728384017944336,1.0137035846710205,-0.0866664424538612,0.0616209842264652,-0.1224020272493362
2023-11-30 19:49:41.893662700,6.549662841796875,-0.1450974941253662,1.3413710594177246,0.8022653460502625,-0.0106137758120894,0.0509308502078056,-0.0704785212874412
2023-11-30 19:49:41.912264700,6.5682646484375,0.132117748260498,0.9236316680908204,0.3366018533706665,0.0910952091217041,0.0127518018707633,0.0416151620447635
2023-11-30 19:49:41.930866400,6.586866455078125,0.2856092453002929,0.5062971115112305,-0.3132107257843017,0.0022143847309052,-0.3186423480510711,0.2282343506813049
2023-11-30 19:49:41.949468400,6.605468505859375,-0.0457644462585449,0.2036285400390625,-1.038619041442871,-0.3374264240264892,-0.8995747566223145,0.4591412544250488
2023-11-30 19:49:41.968070400,6.6240703125,-1.7180471420288086,0.0830640792846679,-1.8589216470718384,-0.6804270148277283,-1.3372594118118286,0.5941423773765564
2023-11-30 19:49:41.986672400,6.64267236328125,-2.299386501312256,-0.1194667816162109,-2.050318717956543,-0.9605085253715516,-1.3571124076843262,0.5782598853111267
2023-11-30 19:49:42.005274000,6.661274169921875,-2.400207042694092,-0.6528692245483398,-1.7505277395248413,-1.0784053802490234,-0.9973130822181702,0.4295142889022827
2023-11-30 19:49:42.023876000,6.6798759765625,-2.1099672317504883,-1.2275762557983398,-1.401472091674805,-0.9751692414283752,-0.5180897116661072,0.2123518735170364
2023-11-30 19:49:42.042478000,6.69847802734375,-1.4160597324371338,-1.2715349197387695,-1.228957176208496,-0.7213549613952637,-0.1973856836557388,0.0052687088027596
2023-11-30 19:49:42.061079800,6.717079833984375,-0.8154728412628174,-0.6709556579589844,-1.120418667793274,-0.4770090281963348,-0.1543197184801101,-0.1343138962984085
2023-11-30 19:49:42.079681800,6.735681884765625,-0.7164068222045898,-0.2465276718139648,-1.258256196975708,-0.3053560256958008,-0.1585957705974578,-0.2121991515159607
2023-11-30 19:49:42.098283800,6.75428369140625,-1.052426815032959,-0.4923086166381836,-1.3830615282058716,-0.1908188909292221,-0.0859028622508049,-0.4116465151309967
2023-11-30 19:49:42.116885800,6.7728857421875,-0.6424651145935059,-1.9216384887695312,-1.012055516242981,0.0721584036946296,0.1165988147258758,-0.6227002739906311
2023-11-30 19:49:42.135487700,6.79148779296875,0.7701001167297363,-3.57220458984375,-0.230880856513977,0.5541307330131531,0.0414624474942684,-0.7183006405830383
2023-11-30 19:49:42.154089700,6.81008984375,3.4777188301086426,-4.807989120483398,-0.8212552070617676,0.97837632894516,-0.3039815723896026,-0.7549524903297424
2023-11-30 19:49:42.172691500,6.82869140625,4.756586074829102,-4.845083236694336,-0.6385374665260315,1.274034857749939,-0.2764926850795746,-0.7543416619300842
2023-11-30 19:49:42.191293400,6.84729345703125,4.189640045166016,-2.833054542541504,-0.0719160437583923,1.38429594039917,0.0396298542618751,-0.750981867313385
2023-11-30 19:49:42.209895400,6.8658955078125,3.348863363265991,-1.167951583862305,0.792365550994873,1.2422698736190796,0.488004595041275,-0.6905062794685364
2023-11-30 19:49:42.228497400,6.884497314453125,2.172800779342652,-0.0027322769165039,1.3580585718154907,0.8562033176422119,0.8007673621177673,-0.5875755548477173
2023-11-30 19:49:42.247099100,6.90309912109375,0.8990933895111084,1.1393394470214844,1.720682144165039,0.4163807034492492,0.8416953086853027,-0.4782307744026184
2023-11-30 19:49:42.265701000,6.921701171875,0.0092840194702148,2.413156032562256,1.9248404502868648,0.1451567411422729,0.6572141647338867,-0.3410916328430176
2023-11-30 19:49:42.284303000,6.94030322265625,0.0558719635009765,3.3448758125305176,1.9991191625595093,0.0425314605236053,0.3847684562206268,-0.041767880320549
2023-11-30 19:49:42.302904800,6.95890478515625,0.7533230781555176,3.791245460510254,1.600765347480774,-0.0008399390499107,0.0484873913228511,0.3730092942714691
2023-11-30 19:49:42.321506800,6.9775068359375,1.5620932579040527,3.5142621994018555,0.981198251247406,-0.0750600099563598,-0.3879754841327667,0.7828995585441589
2023-11-30 19:49:42.340108800,6.99610888671875,1.9639968872070312,2.856715202331543,0.9298605918884276,-0.1734092384576797,-0.5373319387435913,1.127121925354004
2023-11-30 19:49:42.358710800,7.014710693359375,1.2257094383239746,2.588228225708008,0.8309084177017212,-0.2922224402427673,-0.5296961069107056,1.365970015525818
2023-11-30 19:49:42.377312500,7.0333125,0.1157784461975097,2.685154914855957,0.616049587726593,-0.4278344213962555,-0.5406916737556458,1.4829505681991575
2023-11-30 19:49:42.395914500,7.05191455078125,-0.6002469062805176,2.728580474853516,0.5602952241897583,-0.5374846458435059,-0.6228529810905457,1.504941701889038
2023-11-30 19:49:42.414516500,7.0705166015625,-0.8819894790649414,2.46976375579834,0.6728267073631287,-0.5744419693946838,-0.7493020296096802,1.5037200450897217
2023-11-30 19:49:42.433118500,7.089118408203125,-0.6923267841339111,1.7729082107543943,0.5281687378883362,-0.613231897354126,-0.9576069116592408,1.5562543869018557
2023-11-30 19:49:42.451720400,7.107720458984375,-0.6365909576416016,0.6593751907348633,-0.1908068656921386,-0.7958804368972778,-1.496084213256836,1.6860631704330444
2023-11-30 19:49:42.470322200,7.126322265625,-1.2214815616607666,-0.546961784362793,-1.2060344219207764,-1.00998854637146,-1.7599778175354004,1.6982804536819458
2023-11-30 19:49:42.488924200,7.144924072265625,-1.7437454462051392,-1.3395404815673828,-1.6718298196792605,-1.3258056640625,-1.3109921216964722,1.4462987184524536
2023-11-30 19:49:42.507526100,7.163526123046875,-2.8044967651367188,-1.6922407150268557,-1.1912448406219482,-1.6269619464874268,-0.3647626340389251,0.9737948179244996
2023-11-30 19:49:42.526128000,7.182128173828125,-3.849764108657837,-1.8662109375,-0.2301828861236572,-1.6077197790145874,0.2103665620088577,0.4890736043453216
2023-11-30 19:49:42.544729900,7.200729736328125,-3.1396069526672363,-1.4107894897460938,0.1736586093902588,-1.2983167171478271,0.3811032772064209,0.2389244884252548
2023-11-30 19:49:42.563331800,7.219331787109375,-1.406475067138672,-0.2874555587768554,-0.275076150894165,-0.8844558596611023,0.456239640712738,0.2007454335689544
2023-11-30 19:49:42.581933800,7.237933837890625,-0.5908207893371582,0.8176984786987305,-1.073108196258545,-0.5005273222923279,0.4525744318962097,0.2508363425731659
2023-11-30 19:49:42.600535800,7.256535888671875,-0.4418736696243286,1.158660888671875,-1.3905971050262451,-0.2100611329078674,0.3383427262306213,0.2813795804977417
2023-11-30 19:49:42.619137500,7.275137451171875,-0.7480063438415527,0.9235506057739258,-1.37587571144104,-0.0347429327666759,0.143782302737236,0.2694677114486694
2023-11-30 19:49:42.637739500,7.293739501953125,-1.2213630676269531,0.5577259063720703,-1.0145630836486816,0.0660497546195983,0.0420733131468296,0.2496146261692047
2023-11-30 19:49:42.656341500,7.312341552734375,-1.769899606704712,0.328521728515625,-0.6872694492340088,0.2673296928405761,0.2207512557506561,0.2771035432815552
2023-11-30 19:49:42.674943500,7.330943603515625,-1.5374233722686768,0.0144166946411132,-0.6489174365997314,0.542829692363739,0.6431642770767212,0.3155880272388458
2023-11-30 19:49:42.693545500,7.34954541015625,-0.5928010940551758,-0.969590187072754,-1.1007697582244873,1.0284671783447266,1.085430383682251,0.2932914495468139
2023-11-30 19:49:42.712147200,7.368147216796875,1.128152847290039,-2.1115598678588867,-1.5377883911132812,1.4890592098236084,1.270216941833496,0.0058795735239982
2023-11-30 19:49:42.730749200,7.386749267578125,3.1476798057556152,-3.015997886657715,-1.5871131420135498,1.6133702993392944,1.0991748571395874,-0.6813433170318604
2023-11-30 19:49:42.749351200,7.40535107421875,3.481365919113159,-3.380088806152344,-0.5056631565093994,1.4249184131622314,0.8084031939506531,-1.3068687915802002
2023-11-30 19:49:42.767953200,7.423953125,3.3208541870117188,-4.186496734619141,-0.36751389503479,1.0583995580673218,0.8221476078033447,-1.574427604675293
2023-11-30 19:49:42.786555000,7.442554931640625,3.115090131759644,-4.202279090881348,-1.3571336269378662,0.7538834810256958,1.1254420280456543,-1.5725950002670288
2023-11-30 19:49:42.805156900,7.461156982421875,2.2568764686584477,-2.5020408630371094,-1.254197597503662,0.5880337357521057,1.2244020700454712,-1.547855019569397
2023-11-30 19:49:42.823758800,7.4797587890625,1.996309995651245,-0.9194765090942384,-0.2643313407897949,0.5562687516212463,1.0023527145385742,-1.5628211498260498
2023-11-30 19:49:42.842360600,7.498360595703125,2.250924587249756,0.1240959167480468,0.8959866762161255,0.6045270562171936,0.8261182308197021,-1.4986803531646729
2023-11-30 19:49:42.860962600,7.516962646484375,2.4771413803100586,1.0290660858154297,1.5284583568572998,0.5865065455436707,0.8575778007507324,-1.2790744304656982
2023-11-30 19:49:42.879564500,7.535564453125,1.7155005931854248,2.1265997886657715,1.4315245151519775,0.4918225109577179,0.806876003742218,-0.9815833568572998
2023-11-30 19:49:42.898166500,7.55416650390625,0.5954155921936035,3.099821090698242,1.2345856428146362,0.3216966688632965,0.7445678114891052,-0.5829941034317017
2023-11-30 19:49:42.916768300,7.572768310546875,-0.4088828563690185,3.767101287841797,0.8665528893470764,0.1430187225341797,0.631557822227478,-0.2265544682741165
2023-11-30 19:49:42.935370200,7.591370361328125,-0.8841273784637451,3.6946897506713863,0.7404459714889526,-0.2638172209262848,0.2882518172264099,-0.1178205460309982
2023-11-30 19:49:42.953972200,7.60997216796875,-1.4124996662139893,2.8327951431274414,1.324760675430298,-0.6101775765419006,0.2989419400691986,-0.0155006935819983
2023-11-30 19:49:42.972574200,7.62857421875,-2.4368700981140137,1.5529775619506836,1.944488525390625,-0.7008909583091736,0.4953349828720093,0.1775325834751129
2023-11-30 19:49:42.991176200,7.64717626953125,-1.851146578788757,0.8727207183837891,1.30283522605896,-0.6101775765419006,0.372245728969574,0.4625009894371032
2023-11-30 19:49:43.009778000,7.66577783203125,-0.8559153079986572,0.6603546142578125,0.494890034198761,-0.5179370045661926,-0.146073043346405,0.7813724279403687
2023-11-30 19:49:43.028380000,7.6843798828125,-0.4746203422546386,0.699371337890625,-0.5017572641372681,-0.5460367798805237,-0.7923679947853088,0.996091365814209
2023-11-30 19:49:43.046982000,7.70298193359375,-0.800994873046875,0.7658529281616211,-0.9660674333572388,-0.6847030520439148,-1.331150770187378,1.0275509357452393
2023-11-30 19:49:43.065583900,7.721583984375,-1.3581736087799072,0.7676544189453125,-1.0693806409835815,-0.8722385764122009,-1.5544217824935913,0.8604794144630432
2023-11-30 19:49:43.084185600,7.740185546875,-1.6708896160125732,0.7177515029907227,-0.8226017951965332,-1.0441969633102417,-1.3540581464767456,0.6216312646865845
2023-11-30 19:49:43.102787600,7.75878759765625,-1.7702512741088867,0.6125192642211914,-0.6942036151885986,-1.0909281969070437,-0.7544943690299988,0.4136318266391754
2023-11-30 19:49:43.121389600,7.7773896484375,-1.356706142425537,0.4319601058959961,-0.8863955736160278,-0.973336696624756,0.0194713156670331,0.2019671648740768
2023-11-30 19:49:43.139991600,7.795991455078125,-0.671668291091919,0.1841564178466797,-1.0247077941894531,-0.7155517339706421,0.5521454215049744,0.0394771359860897
2023-11-30 19:49:43.158593300,7.81459326171875,-0.0271928310394287,0.0452232360839843,-0.908374547958374,-0.4415788650512695,0.6465240120887756,-0.0426841750741004
2023-11-30 19:49:43.177195300,7.8331953125,0.1271655559539795,0.1590185165405273,-1.045593023300171,-0.2461021542549133,0.3533089160919189,-0.0124463699758052
2023-11-30 19:49:43.195797200,7.85179736328125,-0.0284392833709716,0.3358516693115234,-1.4612360000610352,-0.2112828493118286,-0.1579848974943161,0.0892626196146011
2023-11-30 19:49:43.214399000,7.87039892578125,-0.6323380470275879,0.2045087814331054,-2.016981363296509,-0.2894735336303711,-0.4588358104228973,0.0932332351803779
2023-11-30 19:49:43.233001000,7.8890009765625,-1.2482762336730957,-0.6141939163208008,-2.0278048515319824,-0.3068831861019134,-0.4765508770942688,-0.0558177679777145
2023-11-30 19:49:43.251603000,7.90760302734375,-0.9087517261505128,-2.333707809448242,-1.1591925621032717,-0.0408515818417072,-0.5464949011802673,-0.2155589163303375
2023-11-30 19:49:43.270205000,7.926204833984375,0.9881100654602052,-4.484541893005371,-0.6925692558288574,0.4988474547863006,-0.9942587614059448,-0.4482983946800232
2023-11-30 19:49:43.288807000,7.944806884765625,3.4192612171173096,-5.586629867553711,0.1225371360778808,1.0831396579742432,-1.206839680671692,-0.641331672668457
2023-11-30 19:49:43.307409000,7.963408935546875,4.512367248535156,-4.791568756103516,0.9844213128089904,1.4395792484283447,-0.7196750640869141,-0.7024181485176086
2023-11-30 19:49:43.326010600,7.9820107421875,3.449230432510376,-2.14101791381836,1.45537269115448,1.4554617404937744,0.1165988147258758,-0.7002801299095154
2023-11-30 19:49:43.344612600,8.000612548828125,1.5022921562194824,0.1498346328735351,1.7465869188308716,1.188819169998169,0.8484148383140564,-0.8001564741134644
2023-11-30 19:49:43.363214600,8.019214599609375,-0.0058226585388183,1.4216203689575195,2.603437900543213,0.7328086495399475,1.258915901184082,-0.9290489554405212
2023-11-30 19:49:43.381816300,8.03781640625,-0.9342551231384276,1.8948860168457031,3.443076133728028,0.3216966688632965,1.3627629280090332,-0.8887318968772888
2023-11-30 19:49:43.400418300,8.056418212890625,-0.8983445167541504,2.242269515991211,3.032283306121826,0.1384372264146804,1.250363826751709,-0.6508000493049622
2023-11-30 19:49:43.419020300,8.075020263671876,0.1275961399078369,2.425006866455078,2.1127254962921143,0.2114355713129043,0.778776228427887,-0.2800051569938659
2023-11-30 19:49:43.437622300,8.093622314453125,1.4334900379180908,2.3209333419799805,1.0560134649276731,0.362930029630661,-0.0501672700047493,0.1595120728015899
2023-11-30 19:49:43.456224000,8.11222412109375,2.501932382583618,2.0063953399658203,0.5573877096176147,0.3143662810325622,-0.7044034600257874,0.7037925720214844
2023-11-30 19:49:43.474826000,8.130825927734374,1.5818567276000977,1.902451515197754,-0.7276335954666138,0.1512653976678848,-1.1475858688354492,1.078558087348938
2023-11-30 19:49:43.493428000,8.149427978515625,0.3960216045379638,1.8085341453552248,-1.034951090812683,-0.0106137758120894,-1.27372944355011,1.2401318550109863
2023-11-30 19:49:43.512029700,8.16802978515625,-0.3706998825073242,2.022608757019043,-0.5268136262893677,-0.1663842946290969,-1.1616357564926147,1.2425752878189087
2023-11-30 19:49:43.530631700,8.186631591796875,-0.8695774078369141,1.9860353469848635,-0.1532673835754394,-0.422947496175766,-1.0596213340759275,1.130787014961243
2023-11-30 19:49:43.549233700,8.205233642578126,-1.5737950801849363,1.3262100219726562,-0.0091789960861206,-0.7570905089378357,-1.0318269729614258,0.9518036842346193
2023-11-30 19:49:43.567835600,8.223835693359375,-2.674740791320801,0.1801099777221679,0.0269135236740112,-0.9681442975997924,-0.8824705481529236,0.8015309572219849
2023-11-30 19:49:43.586437600,8.242437744140625,-2.921351671218872,-0.5019569396972656,-0.1716221570968628,-1.0411427021026611,-0.6216312646865845,0.6494256258010864
2023-11-30 19:49:43.605039600,8.26103955078125,-2.8662281036376958,-0.6901540756225586,-0.3127812147140503,-1.0301470756530762,-0.4032471179962158,0.4750237166881561
2023-11-30 19:49:43.623641300,8.279641357421875,-2.6633872985839844,-0.6416196823120117,-0.0224418640136718,-0.9437097311019896,-0.1689804643392563,0.3180314898490906
2023-11-30 19:49:43.642243300,8.298243408203126,-2.4495866298675537,-0.6340417861938477,0.1584606170654297,-0.7647263407707214,0.1065195426344871,0.261526495218277
2023-11-30 19:49:43.660845300,8.31684521484375,-2.016336441040039,-0.8546361923217773,-0.0501246452331543,-0.5157989263534546,0.2222784161567688,0.2960403561592102
2023-11-30 19:49:43.679447000,8.335447021484375,-1.4548766613006592,-1.0162887573242188,-0.4037313461303711,-0.2625955045223236,0.124845489859581,0.3690386712551117
2023-11-30 19:49:43.698049000,8.354049072265624,-1.069275140762329,-0.6841316223144531,-0.6610240936279297,-0.0726165473461151,0.0280234217643737,0.3711767196655273
2023-11-30 19:49:43.716651000,8.372651123046875,-1.0350477695465088,-0.2005252838134765,-0.4828848838806152,0.067576915025711,0.1046869531273841,0.2548069655895233
2023-11-30 19:49:43.735253000,8.3912529296875,-1.1592626571655271,-0.1809339523315429,0.0832300186157226,0.2202931046485901,0.2894735336303711,0.1537088453769683
2023-11-30 19:49:43.753854700,8.409854736328125,-1.0603156089782717,-0.5558366775512695,0.2872655391693115,0.4243219494819641,0.4415788650512695,0.1179732605814933
2023-11-30 19:49:43.772456700,8.428456787109376,-0.3912131786346435,-1.3255729675292969,-0.1061251163482666,0.6763036847114563,0.5503128170967102,0.1292742639780044
2023-11-30 19:49:43.791058700,8.44705859375,0.2447850704193115,-2.00583553314209,-0.3858842849731445,1.1026872396469116,0.6401099562644958,0.1188895553350448
2023-11-30 19:49:43.809660700,8.46566064453125,1.910552740097046,-3.055448532104492,-1.121971607208252,1.5394556522369385,0.5542834401130676,-0.1813504844903946
2023-11-30 19:49:43.828262700,8.4842626953125,4.13503360748291,-4.715631484985352,-1.1160955429077148,1.4802017211914062,0.3197113573551178,-0.7329613566398621
2023-11-30 19:49:43.846864400,8.502864501953125,4.312808036804199,-4.6970720291137695,-0.2266609668731689,1.017166256904602,0.4876991808414459,-1.1260528564453125
2023-11-30 19:49:43.865466400,8.52146630859375,2.2762222290039062,-2.7117576599121094,0.0345621109008789,0.5177842378616333,1.0096831321716309,-1.2195152044296265
2023-11-30 19:49:43.884068400,8.540068359375,1.0502796173095703,-0.9371471405029296,-0.5075225830078125,0.1527925580739975,1.298011302947998,-1.176754593849182
2023-11-30 19:49:43.902670300,8.55867041015625,0.8216791152954102,0.1835737228393554,-0.6073002815246582,-0.0368809625506401,1.1834741830825806,-1.0597740411758425
2023-11-30 19:49:43.921272000,8.57727197265625,1.171752691268921,0.9212760925292968,-0.4321851730346679,-0.0927750915288925,0.8664353489875793,-0.9027817845344543
2023-11-30 19:49:43.939874000,8.5958740234375,1.475712776184082,1.505571365356445,-0.4298583269119262,-0.0720056891441345,0.5335140228271484,-0.7375428676605225
2023-11-30 19:49:43.958476000,8.61447607421875,1.5303373336791992,1.8241868019104004,-0.1044062376022338,0.0025198173243552,0.354225218296051,-0.5344303250312805
2023-11-30 19:49:43.977077800,8.633077880859375,1.412362813949585,1.9431729316711424,0.0173259973526,0.0776561871170997,0.2286925017833709,-0.3548360764980316
2023-11-30 19:49:43.995679700,8.6516796875,1.1497957706451416,2.081405639648437,0.1199924945831298,0.1103374511003494,0.0268016923218965,-0.2574031352996826
2023-11-30 19:49:44.014281700,8.67028173828125,0.7709708213806152,2.2519936561584477,0.4310085773468017,0.0831539705395698,-0.0990364551544189,-0.2241110205650329
2023-11-30 19:49:44.032883700,8.6888837890625,0.262186050415039,2.289215087890625,0.7744748592376709,0.0092393299564719,-0.0358119495213031,-0.2103665620088577
2023-11-30 19:49:44.051485400,8.7074853515625,-0.1703748703002929,2.208484649658203,0.8645176887512207,-0.0720056891441345,0.0998000353574752,-0.2030361741781234
2023-11-30 19:49:44.070087400,8.72608740234375,-0.3510692119598388,1.9837374687194824,0.8284820318222046,-0.1266780793666839,0.1810450553894043,-0.1950949430465698
2023-11-30 19:49:44.088689400,8.744689453125,-0.3999919891357422,2.028177261352539,0.7184063196182251,-0.1114064678549766,0.152945265173912,-0.1752418279647827
2023-11-30 19:49:44.107291400,8.76329150390625,-0.3651485443115234,2.075519561767578,0.5188356041908264,0.0067958706058561,0.0093920463696122,-0.1260672211647033
2023-11-30 19:49:44.125893400,8.781893310546875,-0.0220639705657959,1.7150659561157229,0.1657658815383911,0.1924987584352493,-0.171423926949501,-0.0475710928440094
2023-11-30 19:49:44.144495000,8.8004951171875,0.3855443000793457,0.9778890609741212,-0.3226157426834106,0.3543779253959656,-0.37270388007164,0.0373391099274158
2023-11-30 19:49:44.163097000,8.81909716796875,0.47163987159729,0.4877986907958984,-0.6729347705841064,-0.0591775253415107,-1.0361030101776123,0.3452149629592895
2023-11-30 19:49:44.181699000,8.837698974609374,-0.9783260822296144,0.1935567855834961,-1.511688232421875,-0.715246319770813,-1.3351212739944458,0.6549233794212341
2023-11-30 19:49:44.200301000,8.856301025390625,-3.5592257976531982,-0.197514533996582,-2.7383265495300293,-1.1709513664245603,-1.0840559005737305,0.6830231547355652
2023-11-30 19:49:44.218902800,8.87490283203125,-3.498401403427124,-0.7180385589599609,-2.1395838260650635,-1.3105340003967283,-0.6500364542007446,0.4472293853759765
2023-11-30 19:49:44.237504800,8.8935048828125,-2.313681125640869,-1.0050649642944336,-1.0874054431915283,-1.138270139694214,-0.2456440031528473,0.1454621702432632
2023-11-30 19:49:44.256106800,8.912106689453125,-1.036975383758545,-0.5553674697875977,-0.4188848733901977,-0.7748056054115295,0.0787251964211463,-0.0368809625506401
2023-11-30 19:49:44.274708500,8.93070849609375,-0.0763888359069824,0.1343832015991211,-0.5694836378097534,-0.4519635736942291,0.1782961636781692,-0.1001054644584655
2023-11-30 19:49:44.293310500,8.949310546875,0.1689291000366211,0.680790901184082,-0.8662499189376831,-0.386601060628891,0.052152581512928,-0.054901473224163
2023-11-30 19:49:44.311912400,8.967912353515626,-0.6089513301849365,0.8300247192382812,-1.0883901119232178,-0.5768854022026062,-0.0141262477263808,0.028176138177514
2023-11-30 19:49:44.330514400,8.986514404296875,-1.3235268592834473,-0.0682992935180664,-1.5014985799789429,-0.7653372287750244,0.0274125561118125,0.1060613989830017
2023-11-30 19:49:44.349116200,9.0051162109375,-1.0589836835861206,-1.8822040557861328,-1.4514784812927246,-0.5710822343826294,0.0167224239557981,0.2294560819864273
2023-11-30 19:49:44.367718100,9.02371826171875,1.528430461883545,-3.96700382232666,-2.0101051330566406,-0.042989607900381,-0.5529089570045471,0.1589011996984481
2023-11-30 19:49:44.386320100,9.042320068359375,4.306318759918213,-4.967278480529785,-1.503392219543457,0.6320159435272217,-1.0379356145858765,-0.0090866135433316
2023-11-30 19:49:44.404922000,9.060922119140624,5.256128311157227,-3.952723503112793,-0.1082425117492675,1.2706750631332395,-1.084972262382507,-0.2650389671325683
2023-11-30 19:49:44.423524000,9.079524169921877,4.638774871826172,-1.7526979446411133,1.1156129837036133,1.4933353662490845,-0.5009855031967163,-0.5503128170967102
2023-11-30 19:49:44.442125800,9.098125732421876,2.857522487640381,-0.4611415863037109,2.324965715408325,1.208061456680298,0.6052906513214111,-0.92782723903656
2023-11-30 19:49:44.460727800,9.116727783203125,-0.2182168960571289,0.1640481948852539,3.563339233398437,0.7670170664787292,1.6150500774383545,-1.1865284442901611
2023-11-30 19:49:44.479329800,9.135329833984375,-2.139082431793213,0.8104944229125977,4.5653181076049805,0.4157698452472687,1.9177336692810056,-1.1816415786743164
2023-11-30 19:49:44.497931500,9.153931640625,-1.6837847232818604,2.037606716156006,3.5986366271972656,0.183030366897583,1.613828420639038,-0.9711986184120178
2023-11-30 19:49:44.516533500,9.172533447265623,-0.6366932392120361,2.545377731323242,2.7771220207214355,0.0755181610584259,0.9376010894775392,-0.4388299882411957
2023-11-30 19:49:44.535135500,9.191135498046876,0.3193464279174804,2.5913686752319336,1.4651410579681396,0.129885122179985,-0.2108247131109237,0.3485747277736664
2023-11-30 19:49:44.553737500,9.209737548828125,1.3508169651031494,2.472832202911377,-0.0831577181816101,0.2013563066720962,-1.2117266654968262,1.221195101737976
2023-11-30 19:49:44.572339200,9.228339111328124,1.627107858657837,2.2970266342163086,-1.282503366470337,0.190360739827156,-1.784106969833374,1.81373393535614
2023-11-30 19:49:44.590941200,9.246941162109374,0.6880178451538086,2.083515167236328,-1.2481954097747805,0.0617737025022506,-1.93376886844635,2.0150139331817627
2023-11-30 19:49:44.609543200,9.265543212890623,-0.2754886150360107,1.878563404083252,-0.2912843227386474,-0.2012035846710205,-1.6035964488983154,1.875125765800476
2023-11-30 19:49:44.628145200,9.284145263671874,-1.2265839576721191,1.5133275985717771,0.729237973690033,-0.5521454215049744,-0.9276745319366456,1.4750093221664429
2023-11-30 19:49:44.646747100,9.3027470703125,-2.0390167236328125,0.6932601928710938,1.3674272298812866,-0.7928261160850525,-0.3928624093532562,1.0278563499450684
2023-11-30 19:49:44.665348900,9.321348876953126,-2.1439003944396973,-0.1965751647949218,1.4229313135147097,-0.8377246856689453,-0.21479532122612,0.729143500328064
2023-11-30 19:49:44.683950800,9.339950927734376,-1.6480669975280762,-0.4616355895996094,0.4646189212799072,-0.7537307739257812,-0.2728274762630462,0.5648208260536194
2023-11-30 19:49:44.702552800,9.358552734375,-1.3184258937835691,-0.4462223052978515,-0.3220758438110351,-0.6773726940155029,-0.3861429095268249,0.4438696205615997
2023-11-30 19:49:44.721154800,9.37715478515625,-1.654679536819458,-0.4913282394409179,-0.5528607368469238,-0.6443859934806824,-0.4316523373126983,0.3232238292694092
2023-11-30 19:49:44.739756500,9.395756591796877,-2.163994789123535,-0.5701112747192383,-0.2056879997253418,-0.6483566164970398,-0.3097847998142242,0.2340375632047653
2023-11-30 19:49:44.758358500,9.414358642578126,-2.4988012313842773,-0.7919549942016602,0.1384468078613281,-0.6346121430397034,0.0213039088994264,0.190360739827156
2023-11-30 19:49:44.776960500,9.43296044921875,-2.6725757122039795,-1.1448583602905271,0.3070955276489258,-0.5081631541252136,0.280310571193695,0.2196822464466095
2023-11-30 19:49:44.795562200,9.451562255859375,-2.216177463531494,-1.0510902404785156,0.3451244831085205,-0.3071886301040649,0.3026071488857269,0.2975675165653229
2023-11-30 19:49:44.814164200,9.470164306640624,-1.4975719451904297,-0.4416561126708984,0.1918950080871582,-0.1422551423311233,0.1703549176454544,0.3397171795368194
2023-11-30 19:49:44.832766200,9.48876611328125,-1.268845796585083,0.0394515991210937,0.2857742309570312,-0.0408515818417072,0.0765871703624725,0.3519344627857208
2023-11-30 19:49:44.851368200,9.5073681640625,-1.3141357898712158,-0.0173282623291015,0.2045660018920898,0.070631243288517,0.1013271957635879,0.3690386712551117
2023-11-30 19:49:44.869970000,9.525969970703123,-1.240051031112671,-0.307687759399414,-0.0656254291534423,0.2725220620632171,0.2515999376773834,0.399887353181839
2023-11-30 19:49:44.888572000,9.544572021484376,-0.4133989810943603,-1.0032882690429688,-0.4153351783752441,0.6573668718338013,0.4424951672554016,0.4029416739940643
2023-11-30 19:49:44.907174000,9.563173828125,1.0145320892333984,-2.529240608215332,-0.7939743995666504,1.1784344911575315,0.5298488140106201,0.2007454335689544
2023-11-30 19:49:44.925776000,9.58177587890625,3.550792932510376,-4.09398078918457,-1.0356895923614502,1.303356409072876,0.3734674453735351,-0.2998582422733307
2023-11-30 19:49:44.944377900,9.6003779296875,4.304842948913574,-4.5385026931762695,-0.5515508651733398,0.9169843792915344,0.3276526033878326,-0.7784708142280579
2023-11-30 19:49:44.962979600,9.6189794921875,2.782744646072388,-3.28812313079834,-0.2105920314788818,0.3992764949798584,0.6388881802558899,-0.9415717124938964
2023-11-30 19:49:44.981581600,9.63758154296875,1.4132804870605469,-1.7517070770263672,-0.7499492168426514,0.0660497546195983,0.8224530816078186,-0.9122501611709596
2023-11-30 19:49:45.000183600,9.65618359375,1.0270917415618896,-0.3748016357421875,-0.9554004669189452,0.0125990863889455,0.6950877904891968,-0.8413898944854736
2023-11-30 19:49:45.018785300,9.674785400390626,1.5131659507751465,0.5975818634033203,-0.3195748329162597,0.1564577370882034,0.5533671379089355,-0.7158571481704712
2023-11-30 19:49:45.037387300,9.69338720703125,2.0174570083618164,1.4018850326538086,-0.0487756729125976,0.3250564336776733,0.4443277716636657,-0.586048424243927
2023-11-30 19:49:45.055989200,9.7119892578125,2.0811803340911865,1.9857568740844729,0.1685593128204345,0.4200458824634552,0.2427423894405365,-0.5087739825248718
2023-11-30 19:49:45.074591200,9.73059130859375,1.833646774291992,2.0713672637939453,0.4040963649749756,0.4408152997493744,0.0274125561118125,-0.4400517046451568
2023-11-30 19:49:45.093193000,9.74919287109375,1.334190845489502,1.9028000831604004,0.6202198266983032,0.441426157951355,-0.0739909932017326,-0.3630827665328979
2023-11-30 19:49:45.111795000,9.767794921875,0.6986989974975586,1.9244918823242188,0.5816943645477295,0.3516290485858917,-0.0978147238492965,-0.3484219908714294
2023-11-30 19:49:45.130397000,9.78639697265625,0.0529446601867675,1.9258956909179688,0.7149584293365479,0.0400880016386508,-0.1109483167529106,-0.3884336352348327
2023-11-30 19:49:45.148998700,9.80499853515625,-1.7907806634902954,1.5633792877197266,1.2884666919708252,-0.1905134469270706,0.150196373462677,-0.3410916328430176
2023-11-30 19:49:45.167600600,9.8236005859375,-2.259786605834961,0.9737167358398438,1.1364846229553225,-0.2998582422733307,0.4614319801330566,-0.2473238706588745
2023-11-30 19:49:45.186202600,9.84220263671875,-2.1831047534942627,0.6507768630981445,0.747411847114563,-0.289168119430542,0.519769549369812,-0.1614973694086074
2023-11-30 19:49:45.204804600,9.8608046875,-1.658104419708252,0.5436697006225586,0.3150672912597656,-0.1978438347578048,0.3472002744674682,-0.0805577933788299
2023-11-30 19:49:45.223406600,9.879406494140625,-1.0418050289154053,0.4449472427368164,-0.2350251674652099,-0.0915533602237701,0.1074358448386192,-0.0032833982259035
2023-11-30 19:49:45.242008300,9.89800830078125,-0.6048004627227783,0.2686500549316406,-0.9028677940368652,-0.0713948234915733,-0.2196822464466095,0.028176138177514
2023-11-30 19:49:45.260610300,9.9166103515625,-0.6353135108947754,0.2000894546508789,-1.2575607299804688,-0.1761581301689148,-0.5391645431518555,0.0394771359860897
2023-11-30 19:49:45.279212300,9.93521240234375,-1.1567237377166748,0.3391876220703125,-1.447230577468872,-0.3523926138877868,-0.5736783742904663,0.0636062920093536
2023-11-30 19:49:45.297814300,9.953814208984374,-1.8201920986175537,0.5545139312744141,-1.4434337615966797,-0.5066359639167786,-0.2969566285610199,0.0794887766242027
2023-11-30 19:49:45.316416000,9.972416015625,-2.0713937282562256,0.5238809585571289,-1.2675589323043823,-0.5668061375617981,0.0432950407266616,0.046807512640953
2023-11-30 19:49:45.335018000,9.99101806640625,-1.6549712419509888,0.3105087280273437,-0.9821218252182008,-0.5139663815498352,0.2082285284996032,0.0006872228696011
2023-11-30 19:49:45.353620000,10.009619873046876,-0.8554143905639648,0.3172140121459961,-0.7135698795318604,-0.3716348707675934,0.1471420526504516,-0.0164169911295175
2023-11-30 19:49:45.372221700,10.0282216796875,-0.134634256362915,0.4058837890625,-0.6455420255661011,-0.2271653413772583,-0.0458912178874015,-0.011224640533328
2023-11-30 19:49:45.390823700,10.04682373046875,0.3432245254516601,0.3016471862792969,-0.5747363567352295,-0.2137263119220733,-0.2218202799558639,0.028176138177514
2023-11-30 19:49:45.409425700,10.06542578125,0.111173391342163,0.1282815933227539,-0.6876834630966187,-0.3105483949184418,-0.3058141767978668,0.0981201529502868
2023-11-30 19:49:45.428027600,10.084027587890626,-0.5978357791900635,-0.0580987930297851,-0.7768715620040894,-0.4241692423820495,-0.3662897944450378,0.1185841262340545
2023-11-30 19:49:45.446629600,10.102629638671877,-0.489945650100708,-1.132852554321289,-1.0244486331939695,-0.3511708974838257,-0.391029804944992,0.0840702652931213
2023-11-30 19:49:45.465231400,10.1212314453125,0.4829370975494385,-2.85274600982666,-0.9886889457702636,0.0492509715259075,-0.6497310400009155,-0.0405461490154266
2023-11-30 19:49:45.483833300,10.139833251953124,2.662108898162842,-3.9115495681762695,-0.8207470178604126,0.609108567237854,-0.9951750636100768,-0.2433532625436782
2023-11-30 19:49:45.502435300,10.158435302734375,3.891146898269653,-3.4452476501464844,0.0914415121078491,1.0474040508270264,-0.9316451549530028,-0.432110458612442
2023-11-30 19:49:45.521037300,10.177037353515624,3.275677442550659,-1.6111087799072266,0.979142725467682,1.2040908336639404,-0.3934732675552368,-0.5237401723861694
2023-11-30 19:49:45.539639000,10.19563916015625,1.920888900756836,-0.4967889785766601,1.226048469543457,1.053207278251648,0.3410916328430176,-0.630946934223175
2023-11-30 19:49:45.558241000,10.214240966796876,0.4454584121704101,0.0968360900878906,1.638282299041748,0.6946296095848083,0.946153163909912,-0.7818305492401123
2023-11-30 19:49:45.576843000,10.232843017578125,-0.637606143951416,0.6462697982788086,2.4982714653015137,0.349185585975647,1.2747983932495115,-0.8407790064811707
2023-11-30 19:49:45.595444700,10.25144482421875,-0.6957950592041016,1.1182374954223633,2.5837841033935547,0.1466839015483856,1.2442551851272583,-0.7464004158973694
2023-11-30 19:49:45.614046700,10.270046630859374,0.346564769744873,1.198627471923828,2.005811929702759,0.1020907759666442,0.8331431746482849,-0.5090794563293457
2023-11-30 19:49:45.632648700,10.288648681640623,1.589144229888916,1.0048933029174805,1.297438144683838,0.1402698308229446,0.0869718715548515,-0.1230128929018974
2023-11-30 19:49:45.651250700,10.307250732421876,2.364301443099976,0.8304500579833984,0.5396398305892944,0.14882193505764,-0.7596867084503174,0.3989710509777069
2023-11-30 19:49:45.669852400,10.325852294921877,2.1611216068267822,0.753788948059082,-0.3877869844436645,0.0556650534272193,-1.3348158597946167,0.8821650743484497
2023-11-30 19:49:45.688454400,10.344454345703124,1.03029203414917,0.9448156356811525,-0.9414085149765016,-0.1016326248645782,-1.6448297500610352,1.1610249280929563
2023-11-30 19:49:45.707056400,10.363056396484374,-0.1862664222717285,1.1113519668579102,-0.6328858137130737,-0.2922224402427673,-1.7077488899230957,1.2410482168197632
2023-11-30 19:49:45.725658400,10.381658447265623,-0.8865442276000977,0.8206949234008789,-0.1509484052658081,-0.5912407636642456,-1.543426275253296,1.135979413986206
2023-11-30 19:49:45.744260400,10.40026025390625,-1.8225417137146,0.2230987548828125,0.2996691465377807,-0.8896481990814209,-1.1924843788146973,0.8662826418876648
2023-11-30 19:49:45.762862000,10.418862060546877,-3.049515724182129,-0.5220546722412109,0.672499418258667,-0.9776127338409424,-0.9686024785041808,0.5773435831069946
2023-11-30 19:49:45.781464000,10.437464111328126,-2.844644546508789,-0.6403436660766602,0.7999207377433777,-0.899116575717926,-0.7453314065933228,0.3836994469165802
2023-11-30 19:49:45.800066000,10.456066162109376,-2.205824851989746,-0.1647825241088867,0.5003634691238403,-0.8163444399833679,-0.3235292732715606,0.2667188346385956
2023-11-30 19:49:45.818667800,10.474667724609375,-2.1489830017089844,0.3652877807617187,0.1557937860488891,-0.7384591698646545,0.1123227626085281,0.1451567411422729
2023-11-30 19:49:45.837269800,10.493269775390624,-2.454653263092041,0.6904315948486328,0.1081246137619018,-0.6025417447090149,0.3044397234916687,0.0532215945422649
2023-11-30 19:49:45.855871700,10.511871826171877,-2.1992979049682617,0.85113525390625,0.0820640325546264,-0.414089947938919,0.2732856273651123,0.0785724818706512
2023-11-30 19:49:45.874473500,10.530473388671876,-1.6347339153289795,0.8023757934570312,-0.2593361139297485,-0.2424369603395462,0.1535561382770538,0.1640935540199279
2023-11-30 19:49:45.893075500,10.549075439453125,-1.2940746545791626,0.6350955963134766,-0.8247579336166382,-0.1376736462116241,0.0442113392055034,0.2132681608200073
2023-11-30 19:49:45.911677400,10.567677490234376,-1.1435803174972534,0.4737873077392578,-0.8492945432662964,-0.127594381570816,0.0017562361899763,0.1680641770362854
2023-11-30 19:49:45.930279400,10.586279541015625,-1.179274082183838,0.2735261917114258,-0.5667922496795654,-0.2094502598047256,0.0680350661277771,0.0593302398920059
2023-11-30 19:49:45.948881400,10.60488134765625,-1.4211755990982056,0.0164527893066406,-0.0159928798675537,-0.2796997129917145,0.2549596726894378,0.0208457615226507
2023-11-30 19:49:45.967483100,10.623483154296874,-1.6475636959075928,-0.1009531021118164,0.2463482618331909,-0.2271653413772583,0.4974730014801025,0.0981201529502868
2023-11-30 19:49:45.986085000,10.642085205078123,-0.944270133972168,-0.77423095703125,0.0219430923461914,0.0367282442748546,0.8267291188240051,0.3128391206264496
2023-11-30 19:49:46.004687000,10.66068701171875,0.4080901145935058,-2.3165321350097656,-0.8330869674682617,0.5571850538253784,0.9489020705223083,0.3638463318347931
2023-11-30 19:49:46.023289000,10.6792890625,3.028938055038452,-4.008837699890137,-1.42419171333313,0.8733075857162476,0.4269181191921234,-0.0775034725666046
2023-11-30 19:49:46.041890800,10.697890869140624,4.890215873718262,-4.870266914367676,-0.5739004611968994,0.7077631950378418,0.0237473677843809,-0.6379718780517578
2023-11-30 19:49:46.060492800,10.716492919921874,3.827337026596069,-3.232306480407715,0.3666514158248901,0.3662897944450378,0.38140869140625,-0.8471930623054504
2023-11-30 19:49:46.079094800,10.7350947265625,1.9791977405548096,-0.9294919967651368,-0.3484784364700317,0.1341611742973327,0.7870228886604309,-0.8416953086853027
2023-11-30 19:49:46.097696500,10.753696533203126,1.4886467456817627,0.0871095657348632,-1.0715208053588867,0.12713623046875,0.7967967391014099,-0.7897717952728271
2023-11-30 19:49:46.116298500,10.772298583984377,2.1458890438079834,0.5713624954223633,-1.004436492919922,0.2450331300497055,0.6871465444564819,-0.6431642770767212
2023-11-30 19:49:46.134900500,10.790900390625,2.5358030796051025,1.2741918563842771,-1.057359218597412,0.3497964441776275,0.5652790069580078,-0.4739547073841095
2023-11-30 19:49:46.153502200,10.809502197265624,2.1832098960876465,2.019531726837158,-1.2414309978485107,0.4169915616512298,0.3548360764980316,-0.3924042582511902
2023-11-30 19:49:46.172104200,10.828104248046875,1.680605411529541,2.217060089111328,-0.8776369094848633,0.4960985481739044,0.1957058012485504,-0.3597230017185211
2023-11-30 19:49:46.190706200,10.8467060546875,1.339860916137695,1.9675893783569336,-0.5645298957824707,0.5709294676780701,0.1205694377422332,-0.3557523787021637
2023-11-30 19:49:46.209308200,10.86530810546875,0.887664794921875,1.8338227272033687,-0.259037971496582,0.6314051151275635,0.1593593508005142,-0.34903284907341
2023-11-30 19:49:46.227910100,10.88391015625,0.2802982330322265,1.703655242919922,-0.1103863716125488,0.5687914490699768,0.1984546929597854,-0.3914879560470581
2023-11-30 19:49:46.246511900,10.902511962890625,-0.1552038192749023,1.5348834991455078,0.063449740409851,0.1860846877098083,0.2687041461467743,-0.478841632604599
2023-11-30 19:49:46.265113900,10.92111376953125,-2.3968963623046875,0.9076900482177734,1.0974352359771729,-0.0689513608813285,0.6376664638519287,-0.3933205604553222
2023-11-30 19:49:46.283715800,10.9397158203125,-2.53205943107605,0.6621065139770508,0.5047941207885742,-0.1132390573620796,0.7974076271057129,-0.289168119430542
2023-11-30 19:49:46.302317800,10.95831787109375,-1.7449679374694824,0.7273845672607422,0.1295478343963623,-0.0591775253415107,0.5991820096969604,-0.1996764242649078
2023-11-30 19:49:46.320919600,10.97691943359375,-0.9116413593292236,0.7668848037719727,0.0068079233169555,-0.0167224239557981,0.3065777719020843,-0.0234419368207454
2023-11-30 19:49:46.339521500,10.995521484375,-0.7373168468475342,0.9099416732788086,-0.7408187389373779,-0.0603992566466331,-0.0416151620447635,0.1503490954637527
2023-11-30 19:49:46.358123500,11.01412353515625,-0.89090895652771,0.8176755905151367,-1.4708192348480225,-0.2308305352926254,-0.3363574147224426,0.2303723841905594
2023-11-30 19:49:46.376725200,11.032725341796874,-1.2677044868469238,0.5419235229492188,-1.6107641458511353,-0.4739547073841095,-0.3788125216960907,0.2099084109067917
2023-11-30 19:49:46.395327200,11.0513271484375,-1.7925615310668943,0.3930244445800781,-1.4050847291946411,-0.6459131240844727,-0.1799760311841964,0.1424078494310379
2023-11-30 19:49:46.413929200,11.06992919921875,-1.9124624729156492,0.3476924896240234,-1.1217552423477173,-0.6449968218803406,0.1508072465658188,0.086513727903366
2023-11-30 19:49:46.432531200,11.08853125,-1.2536165714263916,0.1884832382202148,-1.1009855270385742,-0.4898371994495392,0.3609447181224823,0.0226783547550439
2023-11-30 19:49:46.451133000,11.1071328125,-0.2658958435058594,0.0683460235595703,-1.2064085006713867,-0.2971093654632568,0.2338848561048507,-0.0390189886093139
2023-11-30 19:49:46.469735000,11.12573486328125,0.5198221206665039,0.1648330688476562,-1.1488773822784424,-0.2128100246191024,-0.0113773569464683,-0.0307723134756088
2023-11-30 19:49:46.488337000,11.1443369140625,0.4802925586700439,0.3889150619506836,-1.161605954170227,-0.3068831861019134,-0.1799760311841964,0.0425314605236053
2023-11-30 19:49:46.506939000,11.16293896484375,-0.2771480083465576,0.3122148513793945,-1.1967532634735107,-0.5179370045661926,-0.3207803666591644,0.169591337442398
2023-11-30 19:49:46.525540600,11.18154052734375,-0.8646230697631836,-0.1480484008789062,-1.195568561553955,-0.743346095085144,-0.4362338185310364,0.2737437784671783
2023-11-30 19:49:46.544142600,11.200142578125,-0.6695268154144287,-1.661651611328125,-1.3321391344070437,-0.6627119183540344,-0.4252382516860962,0.3317759335041046
2023-11-30 19:49:46.562744600,11.21874462890625,0.7981762886047363,-3.513127326965332,-1.369428277015686,-0.1859319657087326,-0.6564505696296692,0.2221257090568542
2023-11-30 19:49:46.581346300,11.23734619140625,3.305220365524292,-4.371050834655762,-0.8881551027297974,0.4447859227657318,-0.9847903847694396,0.0147371124476194
2023-11-30 19:49:46.599948300,11.2559482421875,4.434029579162598,-3.6908388137817374,0.1019959449768066,0.9716567993164062,-0.960355818271637,-0.1260672211647033
2023-11-30 19:49:46.618550300,11.27455029296875,3.813772201538086,-1.875727653503418,0.6211696863174438,1.2169189453125,-0.5413025617599487,-0.2647335231304168
2023-11-30 19:49:46.637152300,11.29315234375,2.528991222381592,-0.7505931854248047,0.9842543005943298,1.089859127998352,0.1776852905750274,-0.5481747984886169
2023-11-30 19:49:46.655754000,11.31175390625,0.9490563869476318,-0.3458461761474609,2.162879943847656,0.737695574760437,0.9684497714042664,-0.863381028175354
2023-11-30 19:49:46.674356000,11.33035595703125,-0.6417531967163086,-0.03802490234375,3.565680742263794,0.4322631955146789,1.3838378190994265,-0.9614248275756836
2023-11-30 19:49:46.692958000,11.3489580078125,-0.6811714172363281,0.8539905548095703,3.350196599960327,0.2016617357730865,1.289459228515625,-0.8484148383140564
2023-11-30 19:49:46.711560000,11.367559814453124,0.0658235549926757,1.5736465454101562,2.448124408721924,0.0092393299564719,0.8566614985466003,-0.4849502742290497
2023-11-30 19:49:46.730162000,11.386161865234374,0.4900357723236084,1.953546524047852,1.3882060050964355,-0.0817795246839523,0.1165988147258758,0.1387426704168319
2023-11-30 19:49:46.748763600,11.404763671875,0.8539223670959473,2.184511184692383,-0.0857826471328735,-0.0408515818417072,-0.7001274228096008,0.8238275051116943
2023-11-30 19:49:46.767365600,11.42336572265625,1.437967300415039,2.135544776916504,-1.180554986000061,-0.0261908266693353,-1.237993836402893,1.3048834800720217
2023-11-30 19:49:46.785967600,11.441967529296877,1.129711627960205,2.1263327598571777,-1.3373363018035889,-0.1126281917095184,-1.3613885641098022,1.4991384744644165
2023-11-30 19:49:46.804569300,11.4605693359375,0.1388843059539795,2.201592445373535,-0.7458162307739258,-0.2861137986183166,-1.184237718582153,1.4530181884765625
2023-11-30 19:49:46.823171300,11.47917138671875,-0.6186306476593018,2.021323204040528,-0.2859443426132202,-0.4968621432781219,-0.969518780708313,1.2248601913452148
2023-11-30 19:49:46.841773300,11.497773193359375,-1.1055901050567627,1.4692420959472656,-0.0054365396499633,-0.6831759214401245,-0.8574250936508179,0.9469167590141296
2023-11-30 19:49:46.860375000,11.516375,-1.3183135986328125,0.6683502197265625,0.0198546648025512,-0.8435279130935669,-0.6524799466133118,0.7431933879852295
2023-11-30 19:49:46.878977000,11.53497705078125,-1.871381521224976,0.24200439453125,-0.5881332159042358,-0.9553161859512328,-0.4105774760246277,0.5581013560295105
2023-11-30 19:49:46.897579000,11.5535791015625,-2.426499366760254,-0.049086570739746,-0.8259210586547852,-1.0023527145385742,-0.1439350098371505,0.3424660563468933
2023-11-30 19:49:46.916181000,11.572180908203125,-2.635664939880371,-0.2099733352661132,-0.582648515701294,-0.9742529392242432,0.1758527010679245,0.1170569658279419
2023-11-30 19:49:46.934782700,11.59078271484375,-2.5370352268218994,-0.1933736801147461,-0.0779371261596679,-0.8526908755302429,0.4293615818023681,-0.0109192077070474
2023-11-30 19:49:46.953384700,11.609384765625,-2.159371852874756,-0.0150470733642578,0.1679581403732299,-0.6590467095375061,0.4861720204353332,0.0092393299564719
2023-11-30 19:49:46.971986700,11.627986572265623,-1.5873924493789673,0.1223001480102539,-0.0136158466339111,-0.4226420819759369,0.3872119188308716,0.1472947746515274
2023-11-30 19:49:46.990588700,11.646588623046876,-1.2374837398529053,0.2707090377807617,-0.2559130191802978,-0.1819613426923751,0.1538615673780441,0.2920697331428528
2023-11-30 19:49:47.009190400,11.6651904296875,-1.0137724876403809,0.4441375732421875,-0.2921755313873291,-0.0072540193796157,-0.0425314605236053,0.37270388007164
2023-11-30 19:49:47.027792400,11.68379248046875,-1.1892317533493042,0.5707921981811523,-0.0074687004089355,0.0746018588542938,-0.0605519711971282,0.4163807034492492
2023-11-30 19:49:47.046394400,11.702394287109374,-1.49657940864563,0.5080165863037109,0.0010902881622314,0.0917060747742652,0.0377972573041915,0.4182133078575134
2023-11-30 19:49:47.064996000,11.72099609375,-1.7525286674499512,0.2663373947143554,-0.0934088230133056,0.1851683855056762,0.2870301008224487,0.3959167301654815
2023-11-30 19:49:47.083598000,11.73959814453125,-1.5079150199890137,-0.1099920272827148,-0.0563733577728271,0.4243219494819641,0.6975312232971191,0.4863247275352478
2023-11-30 19:49:47.102200000,11.758199951171877,-0.6809133291244507,-1.176955223083496,-0.5611400604248047,1.0828341245651243,0.9098067283630372,0.5773435831069946
2023-11-30 19:49:47.120802000,11.776802001953126,1.9743341207504272,-2.394113540649414,-1.5434954166412354,1.7245476245880127,0.7421243786811829,0.3342193961143493
2023-11-30 19:49:47.139403800,11.79540380859375,4.873406887054443,-3.079998016357422,-1.1830880641937256,1.7987676858901978,0.2998582422733307,-0.2393826395273208
2023-11-30 19:49:47.158005800,11.814005859375,4.229992866516113,-3.534116744995117,-0.6621453762054443,1.4496585130691528,-0.1100320219993591,-0.8551343083381653
2023-11-30 19:49:47.176607700,11.832607666015624,3.5705878734588623,-4.386898040771484,-0.7421085834503174,0.9621883630752563,0.2775616943836212,-1.1999675035476685
2023-11-30 19:49:47.195209700,11.851209716796877,3.425593614578247,-4.30055046081543,-0.9803593158721924,0.6194932460784912,1.029841661453247,-1.2851831912994385
2023-11-30 19:49:47.213811700,11.869811767578126,2.6019248962402344,-2.5894269943237305,-0.5703120231628418,0.4191296100616455,1.314810037612915,-1.335884928703308
2023-11-30 19:49:47.232413400,11.888413330078125,2.149548292160034,-1.129115104675293,0.8116270303726196,0.2645808160305023,1.2344813346862793,-1.2705223560333252
2023-11-30 19:49:47.251015400,11.907015380859375,1.579383134841919,-0.1266841888427734,1.4421898126602173,0.1320231556892395,0.9562324285507202,-1.074129343032837
2023-11-30 19:49:47.269617400,11.925617431640624,0.8639633655548096,0.8422174453735352,1.3050189018249512,0.0132099511101841,0.5949059128761292,-0.816649854183197
2023-11-30 19:49:47.288219100,11.94421923828125,0.2942357063293457,1.826827049255371,1.2968180179595947,-0.1016326248645782,0.2836703360080719,-0.5044979453086853
2023-11-30 19:49:47.306821000,11.962821044921874,-0.4174962043762207,2.381344795227051,1.2013788223266602,-0.1996764242649078,-0.000992655288428,-0.1999818533658981
2023-11-30 19:49:47.325423000,11.981423095703123,-0.9672861099243164,2.4286813735961914,0.9791522026062012,-0.2910007238388061,-0.1976911127567291,0.0605519711971282
2023-11-30 19:49:47.344024800,12.00002490234375,-1.442414402961731,2.0986886024475098,0.9945305585861206,-0.3514763116836548,-0.2395353466272354,0.2593884468078613
2023-11-30 19:49:47.362626800,12.018626708984376,-1.7156813144683838,1.9795827865600584,0.815625011920929,-0.367053359746933,-0.1366046369075775,0.3644571900367737
2023-11-30 19:49:47.381228800,12.037228759765624,-1.610908031463623,2.193965435028076,0.5653431415557861,-0.3340666890144348,0.0219147745519876,0.3739255964756012
2023-11-30 19:49:47.399830500,12.05583056640625,-1.2091288566589355,2.190570831298828,0.2752196788787842,-0.2818377315998077,0.0994945988059043,0.3018435537815094
2023-11-30 19:49:47.418432500,12.0744326171875,-0.700908899307251,1.8866543769836424,-0.0923694372177124,-0.2577085793018341,0.061010118573904,0.1857792437076568
2023-11-30 19:49:47.437034500,12.093034423828126,-0.4280934333801269,1.3660297393798828,-0.5834993124008179,-0.2641226649284363,-0.104534238576889,0.0831539705395698
2023-11-30 19:49:47.455636500,12.111636474609377,-0.4524900913238525,0.9248065948486328,-1.1210819482803345,-0.29374960064888,-0.2960403561592102,0.0324521921575069
2023-11-30 19:49:47.474238500,12.130238525390626,-0.6493122577667236,0.7241058349609375,-1.6512482166290283,-0.3291797637939453,-0.451200008392334,-0.0481819584965705
2023-11-30 19:49:47.492840200,12.148840087890624,-1.0961651802062988,0.8651027679443359,-1.3661906719207764,-0.327041745185852,-0.437760978937149,-0.117209680378437
2023-11-30 19:49:47.511442200,12.167442138671875,-1.342130422592163,0.8722572326660156,-0.688259482383728,-0.2778671085834503,-0.1854738146066665,-0.1297324001789093
2023-11-30 19:49:47.530044200,12.186044189453124,-1.2837622165679932,0.635986328125,-0.423378586769104,-0.2054796367883682,0.080252356827259,-0.1330921649932861
2023-11-30 19:49:47.548646000,12.20464599609375,-0.9884251356124878,0.2883062362670898,-0.4936658143997192,-0.143782302737236,0.0723111182451248,-0.1767689883708953
2023-11-30 19:49:47.567248000,12.223247802734376,-0.5745415687561035,0.0478515625,-0.3919490575790405,-0.0900261998176574,-0.1094211563467979,-0.2155589163303375
2023-11-30 19:49:47.585849900,12.241849853515625,-0.2002527713775634,0.0707130432128906,-0.3187968730926513,-0.0603992566466331,-0.235564723610878,-0.1911243200302124
2023-11-30 19:49:47.604451600,12.26045166015625,0.0071523189544677,0.0630922317504882,-0.4563153982162475,-0.1236237585544586,-0.2618319094181061,-0.0811686590313911
2023-11-30 19:49:47.623053600,12.279053466796874,-0.194087266921997,0.015395164489746,-0.7247079610824585,-0.2543488144874573,-0.2419788092374801,0.0874300226569175
2023-11-30 19:49:47.641655600,12.297655517578123,-0.5019850730895996,-0.1400737762451172,-1.3184412717819214,-0.3145190179347992,-0.3284161686897278,0.1784488707780838
2023-11-30 19:49:47.660257500,12.316257568359376,0.0202558040618896,-1.1222419738769531,-1.7013918161392212,-0.169133186340332,-0.4820486605167389,0.1860846877098083
2023-11-30 19:49:47.678859500,12.334859619140625,1.4465761184692385,-2.115934371948242,-1.858189940452576,0.1054505333304405,-0.9078214168548584,0.070631243288517
2023-11-30 19:49:47.697461200,12.353461181640624,2.553141832351685,-2.700531005859375,-1.3762658834457395,0.5141190886497498,-1.227914571762085,0.0150425452739
2023-11-30 19:49:47.716063200,12.372063232421874,2.73189640045166,-2.9582576751708984,-0.8970861434936523,0.9854012727737428,-1.172020435333252,-0.0552069060504436
2023-11-30 19:49:47.734665200,12.390665283203123,2.6686835289001465,-2.506309509277344,-0.3395566940307617,1.2126429080963137,-0.7764855027198792,-0.3511708974838257
2023-11-30 19:49:47.753267000,12.409266845703126,1.6814391613006592,-1.9852657318115237,1.5719095468521118,1.0672571659088137,0.1120173260569572,-0.7259364128112793
2023-11-30 19:49:47.771869000,12.427868896484377,-0.3662159442901611,-1.6155366897583008,3.534130096435547,0.8345176577568054,1.131550669670105,-0.909195840358734
2023-11-30 19:49:47.790471000,12.446470947265626,-1.5051302909851074,-0.6110162734985352,3.7568182945251465,0.6509527564048767,1.5060107707977295,-0.9571487307548524
2023-11-30 19:49:47.809072600,12.46507275390625,-0.8517351150512695,0.4938278198242187,3.4035983085632324,0.5437459945678711,1.1816415786743164,-0.899727463722229
2023-11-30 19:49:47.827674600,12.483674560546875,0.2285220623016357,0.955364227294922,3.1455283164978027,0.5067886710166931,0.5668061375617981,-0.6480512022972107
2023-11-30 19:49:47.846276600,12.502276611328124,1.257929801940918,1.126112937927246,2.4150190353393555,0.4994583129882812,-0.1677587330341339,-0.1688277572393417
2023-11-30 19:49:47.864878600,12.520878662109377,1.668163776397705,1.3852953910827637,1.2696318626403809,0.4551706314086914,-0.7819832563400269,0.4814378023147583
2023-11-30 19:49:47.883480600,12.53948046875,1.649343729019165,1.6209111213684082,0.2862867712974548,0.2716057598590851,-1.2428807020187378,1.0645081996917725
2023-11-30 19:49:47.902082300,12.558082275390625,0.5521218776702881,2.100778102874756,-0.4382338523864746,0.0327576249837875,-1.513493895530701,1.4117848873138428
2023-11-30 19:49:47.920684300,12.576684326171875,-0.4631919860839844,2.0094776153564453,-0.302458643913269,-0.2170860767364502,-1.5305980443954468,1.5281546115875244
2023-11-30 19:49:47.939286300,12.595286376953124,-1.0218148231506348,1.542017936706543,0.0425912141799926,-0.446465790271759,-1.4075088500976562,1.484783172607422
2023-11-30 19:49:47.957888000,12.613887939453123,-1.3303639888763428,0.872014045715332,0.3577651977539062,-0.6220894455909729,-1.2749511003494265,1.3345104455947876
2023-11-30 19:49:47.976490000,12.632489990234374,-1.4803462028503418,0.2529220581054687,0.1701346635818481,-0.7748056054115295,-1.044960618019104,1.0941351652145386
2023-11-30 19:49:47.995092000,12.651092041015623,-1.7797574996948242,-0.1622705459594726,0.0284645557403564,-0.9076687097549438,-0.7450259327888489,0.8476512432098389
2023-11-30 19:49:48.013693700,12.669693603515626,-2.243083238601685,-0.4256982803344726,-0.0674799680709838,-0.9895246028900146,-0.5165625214576721,0.6039161682128906
2023-11-30 19:49:48.032295700,12.688295654296876,-2.7271742820739746,-0.5456380844116211,-0.3146780729293823,-1.028314471244812,-0.2920697331428528,0.3433823585510254
2023-11-30 19:49:48.050897700,12.706897705078124,-2.8616626262664795,-0.7524585723876953,-0.1733191013336181,-1.0047961473464966,0.0035888305865228,0.1240819096565246
2023-11-30 19:49:48.069499400,12.72549951171875,-3.026214122772217,-0.8329801559448242,0.0791465044021606,-0.8447496294975281,0.2241110205650329,0.0816268026828765
2023-11-30 19:49:48.088101400,12.744101318359377,-2.497992515563965,-0.6008024215698242,-0.0144245624542236,-0.5463421940803528,0.2977202236652374,0.215711623430252
2023-11-30 19:49:48.106703400,12.762703369140626,-1.6573309898376465,-0.1428718566894531,-0.5619082450866699,-0.1963166743516922,0.2173915058374405,0.3769799172878265
2023-11-30 19:49:48.125305300,12.781305419921877,-0.96670401096344,0.1665410995483398,-0.7185137271881104,0.0345902182161808,0.0854447111487388,0.4356229603290558
2023-11-30 19:49:48.143907300,12.7999072265625,-0.9479951858520508,0.4136619567871094,-0.4043872356414795,0.0923169404268264,0.1520289778709411,0.4020253717899322
2023-11-30 19:49:48.162509000,12.818509033203124,-1.645237684249878,0.3567361831665039,-0.0801973342895507,0.1952476501464843,0.3551415205001831,0.3256672918796539
2023-11-30 19:49:48.181111000,12.837111083984375,-1.6086018085479736,-0.1553297042846679,0.0676054954528808,0.4313468933105469,0.5310705900192261,0.2673296928405761
2023-11-30 19:49:48.199713000,12.855713134765624,-0.4037368297576904,-1.3133440017700195,-0.0882542133331298,0.949665665626526,0.5753582715988159,0.1503490954637527
2023-11-30 19:49:48.218314800,12.874314697265625,1.7280614376068115,-2.539925575256348,-0.3020625114440918,1.5385392904281616,0.34903284907341,-0.1627191007137298
2023-11-30 19:49:48.236916700,12.892916748046876,4.654721260070801,-3.83083438873291,-0.1237201690673828,1.5611412525177002,0.1104901656508445,-0.6202568411827087
2023-11-30 19:49:48.255518700,12.911518798828125,4.526056289672852,-4.051958084106445,0.2181487083435058,1.071838617324829,0.1862373948097229,-1.0234276056289673
2023-11-30 19:49:48.274120400,12.930120361328123,2.468350648880005,-3.011515617370605,0.3353352546691894,0.4915170669555664,0.6666825413703918,-1.1733949184417725
2023-11-30 19:49:48.292722400,12.948722412109374,1.4409399032592771,-1.6416645050048828,0.274005651473999,0.0342847853899002,1.1165844202041626,-1.1245256662368774
2023-11-30 19:49:48.311324400,12.967324462890623,0.8750402927398682,-0.2679071426391601,-0.053903579711914,-0.1978438347578048,1.156901478767395,-0.9886083006858826
2023-11-30 19:49:48.329926400,12.985926513671876,0.990997552871704,0.9311132431030272,0.028977632522583,-0.2085339576005935,0.908890426158905,-0.7396808862686157
2023-11-30 19:49:48.348528400,13.0045283203125,1.4464993476867676,1.7033405303955078,-0.3342006206512451,-0.0985783040523529,0.4727329909801483,-0.4489092528820038
2023-11-30 19:49:48.367130000,13.023130126953124,1.7609901428222656,2.038888931274414,-0.7656986713409424,0.0636062920093536,-0.0339793525636196,-0.2293033599853515
2023-11-30 19:49:48.385732000,13.041732177734374,1.8330347537994385,1.9699878692626955,-0.7956565618515015,0.2202931046485901,-0.3690386712551117,-0.0961348414421081
2023-11-30 19:49:48.404334000,13.060333984375,1.5502054691314695,1.805833339691162,-0.5287290811538696,0.3293324708938598,-0.4001927971839905,-0.032604906708002
2023-11-30 19:49:48.422935800,13.078935791015626,0.9123425483703612,1.6185154914855957,-0.3700625896453857,0.3644571900367737,-0.3452149629592895,-0.0884990319609642
2023-11-30 19:49:48.441537800,13.097537841796877,0.4508123397827148,1.2806081771850586,-0.1631190776824951,-0.0933859497308731,-0.3552942276000976,-0.3132972717285156
2023-11-30 19:49:48.460139800,13.116139892578126,-1.8119118213653564,0.5638132095336914,1.0260531902313232,-0.4470766484737396,0.1104901656508445,-0.3404807448387146
2023-11-30 19:49:48.478741500,13.134741455078125,-2.9477860927581787,-0.0561389923095703,0.6663131713867188,-0.5216021537780762,0.6211731433868408,-0.3169624507427215
2023-11-30 19:49:48.497343500,13.153343505859375,-2.4690842628479004,0.0175409317016601,0.2780284881591797,-0.3786598145961761,0.8084031939506531,-0.3139081299304962
2023-11-30 19:49:48.515945500,13.171945556640624,-1.534556865692139,0.4021415710449219,0.1347044706344604,-0.1593593508005142,0.6569086909294128,-0.2390772104263305
2023-11-30 19:49:48.534547200,13.190547119140623,-1.0323359966278076,0.7490367889404297,-0.4365489482879638,0.0132099511101841,0.2473238706588745,-0.1159879490733146
2023-11-30 19:49:48.553149200,13.209149169921876,-0.8778362274169922,0.9197015762329102,-1.3352439403533936,0.0639117285609245,-0.1146135032176971,-0.0170278549194335
2023-11-30 19:49:48.571751200,13.227751220703125,-1.1176080703735352,0.9904727935791016,-1.8344348669052124,-0.0423787422478199,-0.212962731719017,0.0193185992538929
2023-11-30 19:49:48.590353200,13.246353271484375,-1.69028902053833,1.0460262298583984,-2.066157817840576,-0.2381609082221985,-0.0052687088027596,-0.0594829581677913
2023-11-30 19:49:48.608955000,13.264954833984374,-2.147122859954834,1.1665496826171875,-1.608137607574463,-0.3844630122184753,0.4602102637290954,-0.1416442692279815
2023-11-30 19:49:48.627556900,13.283556884765623,-2.090286493301392,1.1559247970581057,-1.1947746276855469,-0.4165334105491638,0.8426116108894348,-0.192651480436325
2023-11-30 19:49:48.646158800,13.302158935546874,-1.3168649673461914,0.8617191314697266,-1.213884949684143,-0.3585012555122375,0.880790650844574,-0.2421315312385559
2023-11-30 19:49:48.664760600,13.320760498046877,-0.3600592613220215,0.5678548812866211,-1.1279382705688477,-0.2625955045223236,0.6465240120887756,-0.2351065874099731
2023-11-30 19:49:48.683362600,13.339362548828126,0.3346486091613769,0.3362722396850586,-1.050492525100708,-0.2259436100721359,0.210671991109848,-0.1627191007137298
2023-11-30 19:49:48.701964500,13.357964599609376,0.5641195774078369,-0.0144710540771484,-1.1438398361206057,-0.330706924200058,-0.2135736048221588,-0.0552069060504436
2023-11-30 19:49:48.720566300,13.376566162109375,-0.029958963394165,-0.1024456024169921,-0.7911012172698975,-0.5234347581863403,-0.3788125216960907,0.0681877806782722
2023-11-30 19:49:48.739168300,13.395168212890624,-0.8317835330963135,-0.2575750350952148,-0.5432971715927124,-0.7128028273582458,-0.4405098557472229,0.1393535286188125
2023-11-30 19:49:48.757770200,13.413770263671877,-0.5884602069854736,-1.690943717956543,-0.3603343963623047,-0.6168970465660095,-0.3268890082836151,0.2248746007680893
2023-11-30 19:49:48.776372200,13.432372314453126,0.8467249870300293,-3.1289453506469727,-0.7737098932266235,-0.1895971596240997,-0.487546443939209,0.1237764731049537
2023-11-30 19:49:48.794974200,13.45097412109375,3.2018330097198486,-3.785801887512207,-0.7249290943145752,0.3656789362430572,-0.6949350237846375,-0.0747545808553695
2023-11-30 19:49:48.813576000,13.469575927734375,4.320585250854492,-3.6087474822998047,0.2193883657455444,0.8574250936508179,-0.5862011313438416,-0.2366337478160858
2023-11-30 19:49:48.832178000,13.488177978515624,3.811896800994873,-2.231011390686035,0.6179542541503906,1.096578598022461,-0.267024278640747,-0.4330267608165741
2023-11-30 19:49:48.850780000,13.50677978515625,2.7619802951812744,-1.0482063293457031,1.4742650985717771,0.9857066869735718,0.409508466720581,-0.6004037261009216
2023-11-30 19:49:48.869381600,13.525381591796876,1.0858569145202637,-0.3730697631835937,2.172731876373291,0.7135664224624634,1.0787107944488523,-0.6868410706520081
2023-11-30 19:49:48.887983600,13.543983642578125,0.0782375335693359,0.2655754089355469,2.5145888328552246,0.4457022249698639,1.278158187866211,-0.6905062794685364
2023-11-30 19:49:48.906585600,13.562585693359376,0.2516169548034668,0.9114265441894532,2.435607433319092,0.2826013267040252,1.1254420280456543,-0.5536725521087646
2023-11-30 19:49:48.925187300,13.581187255859374,0.6819279193878174,1.5301642417907717,2.013374090194702,0.2960403561592102,0.7812197208404541,-0.2705367505550384
2023-11-30 19:49:48.943789300,13.599789306640623,1.262247085571289,1.9762182235717771,1.2788971662521362,0.4316523373126983,0.2183077931404113,0.0910952091217041
2023-11-30 19:49:48.962391300,13.618391357421874,1.8847095966339111,2.033938407897949,0.7352175116539001,0.4979311525821686,-0.3974438905715942,0.5012909173965454
2023-11-30 19:49:48.980993300,13.6369931640625,1.724571704864502,2.120656967163086,0.4185604453086853,0.2777144014835357,-0.922787606716156,1.0361030101776123
2023-11-30 19:49:48.999595000,13.655594970703126,0.0350334644317626,2.3854522705078125,-0.6666284799575806,0.004657844081521,-1.2996912002563477,1.433470606803894
2023-11-30 19:49:49.018197000,13.674197021484376,-1.0344350337982178,2.215716361999512,-1.0696107149124146,-0.2589302957057953,-1.5712205171585083,1.6002366542816162
2023-11-30 19:49:49.036799000,13.692799072265624,-1.2431180477142334,1.757688045501709,-0.6179165840148926,-0.5115228891372681,-1.7523419857025146,1.547396898269653
2023-11-30 19:49:49.055400700,13.711400634765624,-1.6940150260925293,0.996568202972412,-0.1228111982345581,-0.6596575975418091,-1.7028619050979614,1.2520437240600586
2023-11-30 19:49:49.074002700,13.730002685546877,-1.6551886796951294,0.1952838897705078,0.4618746042251587,-0.6556869745254517,-1.4970004558563232,0.8473458290100098
